PE UV       SUBTECH     SPECTRUM    ASCII       PEDS        4.00        
   -1
CICIMAUCR0261-3.ASC
24/07/01
17:03:09.00
24/07/01
17:03:09.00
Vinicio Soto Monge
C. resplendens. Sex M. Ventral
250,000000
1
Lambda 1050
1050L1511233
PerkinElmer UV WinLab 6.3.2.0749 / 2.02.05 Lambda 900 UV/VIS/NIR, Aug  7 2015 09:38:08

0
0
3350/servo 860,8/2
0
0
UV/VIS
1
1
1
DoubleDePol,CommonBeamDepol,RBeamAtt,SBeamAtt,60mm sphere, WB InGaAs Detector
0
0
0
0
Program
Program
3350/servo 860,8/2
3350/0,2 860,8/0,2
3350/0,2 860,8/0,2
0
15.00
 
 
 
0
 
860,8
319,2
860,8
Front
100
on
S:100 R:100
0
0
0
0
 
0
 
 
 
0
 
 
0
0
0
0
0
 
 
 
 
0
0


0
0
#HDR
-1
-1
#GR
nm
%R
1.0
0.0
2500,000000
-1,000000
2251
8
46,448200
4,460900
#DATA
2482.000000	6.409805
2481.000000	6.387240
2480.000000	6.492464
2479.000000	6.477144
2478.000000	6.418831
2477.000000	6.449591
2476.000000	6.420612
2475.000000	6.434151
2474.000000	6.411586
2473.000000	6.432845
2472.000000	6.382726
2471.000000	6.420018
2470.000000	6.359211
2469.000000	6.355292
2468.000000	6.402560
2467.000000	6.368000
2466.000000	6.368356
2465.000000	6.384152
2464.000000	6.350423
2463.000000	6.362299
2462.000000	6.389971
2461.000000	6.381064
2460.000000	6.389496
2459.000000	6.342109
2458.000000	6.386289
2457.000000	6.400779
2456.000000	6.398047
2455.000000	6.426432
2454.000000	6.453391
2453.000000	6.431063
2452.000000	6.456954
2451.000000	6.458142
2450.000000	6.505172
2449.000000	6.504935
2448.000000	6.549946
2447.000000	6.549946
2446.000000	6.550896
2445.000000	6.591038
2444.000000	6.600658
2443.000000	6.608022
2442.000000	6.636169
2441.000000	6.629637
2440.000000	6.676311
2439.000000	6.692225
2438.000000	6.683793
2437.000000	6.704339
2436.000000	6.749351
2435.000000	6.772509
2434.000000	6.792343
2433.000000	6.778685
2432.000000	6.801607
2431.000000	6.810633
2430.000000	6.836523
2429.000000	6.838423
2428.000000	6.866095
2427.000000	6.887710
2426.000000	6.892580
2425.000000	6.902318
2424.000000	6.918945
2423.000000	6.951605
2422.000000	6.985453
2421.000000	6.990679
2420.000000	6.980703
2419.000000	6.995429
2418.000000	7.013838
2417.000000	7.016094
2416.000000	7.023695
2415.000000	7.042222
2414.000000	7.066569
2413.000000	7.085809
2412.000000	7.103979
2411.000000	7.111580
2410.000000	7.115975
2409.000000	7.115143
2408.000000	7.123338
2407.000000	7.141865
2406.000000	7.151723
2405.000000	7.154929
2404.000000	7.165855
2403.000000	7.176900
2402.000000	7.191865
2401.000000	7.201128
2400.000000	7.216449
2399.000000	7.206473
2398.000000	7.218230
2397.000000	7.226425
2396.000000	7.240914
2395.000000	7.257541
2394.000000	7.251247
2393.000000	7.273574
2392.000000	7.288301
2391.000000	7.298277
2390.000000	7.292576
2389.000000	7.289014
2388.000000	7.305997
2387.000000	7.328206
2386.000000	7.324168
2385.000000	7.325712
2384.000000	7.317873
2383.000000	7.315498
2382.000000	7.330700
2381.000000	7.318823
2380.000000	7.316923
2379.000000	7.333906
2378.000000	7.337826
2377.000000	7.333788
2376.000000	7.335331
2375.000000	7.334856
2374.000000	7.322624
2373.000000	7.308016
2372.000000	7.310154
2371.000000	7.313598
2370.000000	7.300177
2369.000000	7.287113
2368.000000	7.287351
2367.000000	7.275712
2366.000000	7.268467
2365.000000	7.265617
2364.000000	7.255166
2363.000000	7.260985
2362.000000	7.245902
2361.000000	7.208373
2360.000000	7.191865
2359.000000	7.186639
2358.000000	7.170606
2357.000000	7.146853
2356.000000	7.144834
2355.000000	7.145784
2354.000000	7.135689
2353.000000	7.127732
2352.000000	7.121438
2351.000000	7.113718
2350.000000	7.113362
2349.000000	7.104573
2348.000000	7.109443
2347.000000	7.120725
2346.000000	7.129039
2345.000000	7.141390
2344.000000	7.136283
2343.000000	7.151723
2342.000000	7.164668
2341.000000	7.158255
2340.000000	7.176782
2339.000000	7.181770
2338.000000	7.188302
2337.000000	7.204929
2336.000000	7.193171
2335.000000	7.177732
2334.000000	7.181176
2333.000000	7.211461
2332.000000	7.198634
2331.000000	7.163124
2330.000000	7.143647
2329.000000	7.129276
2328.000000	7.113837
2327.000000	7.102436
2326.000000	7.107899
2325.000000	7.081296
2324.000000	7.055643
2323.000000	7.040441
2322.000000	7.024170
2321.000000	6.998873
2320.000000	6.964788
2319.000000	6.935691
2318.000000	6.904456
2317.000000	6.884148
2316.000000	6.862057
2315.000000	6.812652
2314.000000	6.765502
2313.000000	6.729755
2312.000000	6.716572
2311.000000	6.692344
2310.000000	6.670254
2309.000000	6.641394
2308.000000	6.604459
2307.000000	6.604815
2306.000000	6.597570
2305.000000	6.577618
2304.000000	6.566335
2303.000000	6.565979
2302.000000	6.554697
2301.000000	6.574886
2300.000000	6.593295
2299.000000	6.596264
2298.000000	6.606240
2297.000000	6.628805
2296.000000	6.676905
2295.000000	6.701964
2294.000000	6.714553
2293.000000	6.711346
2292.000000	6.738187
2291.000000	6.758970
2290.000000	6.771203
2289.000000	6.788661
2288.000000	6.788661
2287.000000	6.801013
2286.000000	6.770609
2285.000000	6.791274
2284.000000	6.792937
2283.000000	6.775835
2282.000000	6.772985
2281.000000	6.767878
2280.000000	6.738781
2279.000000	6.716097
2278.000000	6.701489
2277.000000	6.699826
2276.000000	6.671679
2275.000000	6.654458
2274.000000	6.639256
2273.000000	6.629755
2272.000000	6.624648
2271.000000	6.620492
2270.000000	6.628686
2269.000000	6.624055
2268.000000	6.620254
2267.000000	6.654696
2266.000000	6.663247
2265.000000	6.686643
2264.000000	6.721560
2263.000000	6.762415
2262.000000	6.808139
2261.000000	6.860157
2260.000000	6.904337
2259.000000	6.957425
2258.000000	7.037709
2257.000000	7.103386
2256.000000	7.181413
2255.000000	7.266092
2254.000000	7.345664
2253.000000	7.445544
2252.000000	7.515140
2251.000000	7.580698
2250.000000	7.662288
2249.000000	7.747323
2248.000000	7.804567
2247.000000	7.897560
2246.000000	7.929863
2245.000000	8.048271
2244.000000	8.079981
2243.000000	8.163472
2242.000000	8.182355
2241.000000	8.210384
2240.000000	8.270122
2239.000000	8.313352
2238.000000	8.349575
2237.000000	8.387104
2236.000000	8.431759
2235.000000	8.459788
2234.000000	8.459907
2233.000000	8.484728
2232.000000	8.516438
2231.000000	8.545654
2230.000000	8.542210
2229.000000	8.582233
2228.000000	8.565488
2227.000000	8.579739
2226.000000	8.591022
2225.000000	8.580927
2224.000000	8.579383
2223.000000	8.564656
2222.000000	8.540072
2221.000000	8.572138
2220.000000	8.548386
2219.000000	8.528552
2218.000000	8.512044
2217.000000	8.502780
2216.000000	8.495536
2215.000000	8.457412
2214.000000	8.452543
2213.000000	8.451356
2212.000000	8.433778
2211.000000	8.436273
2210.000000	8.432591
2209.000000	8.418458
2208.000000	8.374278
2207.000000	8.394705
2206.000000	8.373446
2205.000000	8.360857
2204.000000	8.336155
2203.000000	8.343399
2202.000000	8.322853
2201.000000	8.349100
2200.000000	8.313589
2199.000000	8.319409
2198.000000	8.297200
2197.000000	8.301713
2196.000000	8.297675
2195.000000	8.284967
2194.000000	8.278910
2193.000000	8.275347
2192.000000	8.282473
2191.000000	8.253257
2190.000000	8.244944
2189.000000	8.244113
2188.000000	8.236630
2187.000000	8.237937
2186.000000	8.239481
2185.000000	8.228079
2184.000000	8.237224
2183.000000	8.204208
2182.000000	8.231999
2181.000000	8.220835
2180.000000	8.200051
2179.000000	8.201951
2178.000000	8.199814
2177.000000	8.185800
2176.000000	8.182593
2175.000000	8.196132
2174.000000	8.179743
2173.000000	8.201714
2172.000000	8.185087
2171.000000	8.180574
2170.000000	8.179624
2169.000000	8.185681
2168.000000	8.216203
2167.000000	8.204089
2166.000000	8.208365
2165.000000	8.201239
2164.000000	8.232949
2163.000000	8.263352
2162.000000	8.269409
2161.000000	8.275110
2160.000000	8.264065
2159.000000	8.283305
2158.000000	8.296369
2157.000000	8.317865
2156.000000	8.324872
2155.000000	8.351356
2154.000000	8.359907
2153.000000	8.374397
2152.000000	8.419052
2151.000000	8.431047
2150.000000	8.437223
2149.000000	8.442211
2148.000000	8.456462
2147.000000	8.510619
2146.000000	8.509431
2145.000000	8.519407
2144.000000	8.544466
2143.000000	8.569051
2142.000000	8.569882
2141.000000	8.583896
2140.000000	8.605986
2139.000000	8.625820
2138.000000	8.625345
2137.000000	8.652542
2136.000000	8.675225
2135.000000	8.684489
2134.000000	8.674750
2133.000000	8.677482
2132.000000	8.676532
2131.000000	8.683658
2130.000000	8.711686
2129.000000	8.723087
2128.000000	8.717387
2127.000000	8.703847
2126.000000	8.702066
2125.000000	8.693159
2124.000000	8.712280
2123.000000	8.698384
2122.000000	8.695178
2121.000000	8.703610
2120.000000	8.702304
2119.000000	8.687458
2118.000000	8.677482
2117.000000	8.657173
2116.000000	8.633777
2115.000000	8.643397
2114.000000	8.641496
2113.000000	8.618338
2112.000000	8.598979
2111.000000	8.593516
2110.000000	8.580571
2109.000000	8.576414
2108.000000	8.569051
2107.000000	8.562162
2106.000000	8.558124
2105.000000	8.551117
2104.000000	8.522376
2103.000000	8.494467
2102.000000	8.480571
2101.000000	8.467270
2100.000000	8.461450
2099.000000	8.458125
2098.000000	8.451949
2097.000000	8.451118
2096.000000	8.433778
2095.000000	8.406582
2094.000000	8.403731
2093.000000	8.395299
2092.000000	8.389598
2091.000000	8.389480
2090.000000	8.386985
2089.000000	8.387936
2088.000000	8.370834
2087.000000	8.359670
2086.000000	8.358126
2085.000000	8.346962
2084.000000	8.335798
2083.000000	8.329623
2082.000000	8.320478
2081.000000	8.301832
2080.000000	8.292687
2079.000000	8.285917
2078.000000	8.268578
2077.000000	8.240787
2076.000000	8.220241
2075.000000	8.210502
2074.000000	8.195776
2073.000000	8.169173
2072.000000	8.153139
2071.000000	8.140313
2070.000000	8.129505
2069.000000	8.110622
2068.000000	8.070242
2067.000000	8.052309
2066.000000	8.040789
2065.000000	8.023806
2064.000000	7.992452
2063.000000	7.981644
2062.000000	7.965136
2061.000000	7.940315
2060.000000	7.931170
2059.000000	7.918106
2058.000000	7.895303
2057.000000	7.872500
2056.000000	7.870363
2055.000000	7.873688
2054.000000	7.854211
2053.000000	7.852667
2052.000000	7.876063
2051.000000	7.889365
2050.000000	7.880576
2049.000000	7.902073
2048.000000	7.931289
2047.000000	7.947084
2046.000000	7.967155
2045.000000	7.983070
2044.000000	8.017630
2043.000000	8.051121
2042.000000	8.063829
2041.000000	8.092332
2040.000000	8.121786
2039.000000	8.146607
2038.000000	8.172498
2037.000000	8.195776
2036.000000	8.205989
2035.000000	8.235205
2034.000000	8.275585
2033.000000	8.283186
2032.000000	8.296844
2031.000000	8.308839
2030.000000	8.311808
2029.000000	8.328910
2028.000000	8.351475
2027.000000	8.332710
2026.000000	8.337223
2025.000000	8.353257
2024.000000	8.368458
2023.000000	8.376416
2022.000000	8.381997
2021.000000	8.365846
2020.000000	8.359314
2019.000000	8.378435
2018.000000	8.386867
2017.000000	8.377722
2016.000000	8.365489
2015.000000	8.352306
2014.000000	8.355869
2013.000000	8.357651
2012.000000	8.323328
2011.000000	8.338767
2010.000000	8.327604
2009.000000	8.327485
2008.000000	8.317627
2007.000000	8.293400
2006.000000	8.270597
2005.000000	8.247438
2004.000000	8.229742
2003.000000	8.230930
2002.000000	8.205277
2001.000000	8.179267
2000.000000	8.144470
1999.000000	8.130456
1998.000000	8.117035
1997.000000	8.098389
1996.000000	8.056347
1995.000000	8.041145
1994.000000	8.017749
1993.000000	7.956348
1992.000000	7.953497
1991.000000	7.936158
1990.000000	7.895541
1989.000000	7.865731
1988.000000	7.806230
1987.000000	7.792929
1986.000000	7.789722
1985.000000	7.746254
1984.000000	7.703975
1983.000000	7.693998
1982.000000	7.639011
1981.000000	7.642692
1980.000000	7.589367
1979.000000	7.556945
1978.000000	7.527016
1977.000000	7.507777
1976.000000	7.458490
1975.000000	7.455283
1974.000000	7.403858
1973.000000	7.365616
1972.000000	7.362647
1971.000000	7.344001
1970.000000	7.288895
1969.000000	7.284382
1968.000000	7.250653
1967.000000	7.232126
1966.000000	7.209085
1965.000000	7.165262
1964.000000	7.161342
1963.000000	7.137708
1962.000000	7.094360
1961.000000	7.085690
1960.000000	7.070963
1959.000000	7.067400
1958.000000	7.036759
1957.000000	7.033790
1956.000000	6.973933
1955.000000	6.939967
1954.000000	6.950299
1953.000000	6.938066
1952.000000	6.887117
1951.000000	6.884266
1950.000000	6.863958
1949.000000	6.864433
1948.000000	6.823697
1947.000000	6.817759
1946.000000	6.825478
1945.000000	6.820965
1944.000000	6.789255
1943.000000	6.785811
1942.000000	6.755645
1941.000000	6.742343
1940.000000	6.720847
1939.000000	6.750657
1938.000000	6.744956
1937.000000	6.730586
1936.000000	6.756239
1935.000000	6.770253
1934.000000	6.742819
1933.000000	6.752320
1932.000000	6.776429
1931.000000	6.770134
1930.000000	6.800181
1929.000000	6.802438
1928.000000	6.814789
1927.000000	6.838542
1926.000000	6.874884
1925.000000	6.884504
1924.000000	6.930822
1923.000000	6.929753
1922.000000	6.953506
1921.000000	7.001486
1920.000000	7.062412
1919.000000	7.112530
1918.000000	7.152198
1917.000000	7.192696
1916.000000	7.256947
1915.000000	7.255878
1914.000000	7.334500
1913.000000	7.399345
1912.000000	7.466447
1911.000000	7.541981
1910.000000	7.606944
1909.000000	7.673571
1908.000000	7.746967
1907.000000	7.795185
1906.000000	7.890434
1905.000000	7.981644
1904.000000	8.100290
1903.000000	8.177367
1902.000000	8.310027
1901.000000	8.408482
1900.000000	8.509906
1899.000000	8.682114
1898.000000	8.831400
1897.000000	8.976886
1896.000000	9.115246
1895.000000	9.255387
1894.000000	9.393747
1893.000000	9.577831
1892.000000	9.765478
1891.000000	9.976996
1890.000000	10.202054
1889.000000	10.455733
1888.000000	10.664401
1887.000000	10.940171
1886.000000	11.181856
1885.000000	11.490998
1884.000000	11.807147
1883.000000	12.151563
1882.000000	12.514505
1881.000000	12.886236
1880.000000	13.231839
1879.000000	13.597869
1878.000000	13.926132
1877.000000	14.308196
1876.000000	14.693584
1875.000000	15.017928
1874.000000	15.382652
1873.000000	15.702721
1872.000000	16.058537
1871.000000	16.401646
1870.000000	16.727772
1869.000000	17.027057
1868.000000	17.324323
1867.000000	17.552706
1866.000000	17.780732
1865.000000	17.973724
1864.000000	18.147950
1863.000000	18.328352
1862.000000	18.497353
1861.000000	18.635832
1860.000000	18.782268
1859.000000	18.926922
1858.000000	19.054712
1857.000000	19.163025
1856.000000	19.251148
1855.000000	19.338795
1854.000000	19.423830
1853.000000	19.482737
1852.000000	19.524423
1851.000000	19.560409
1850.000000	19.589862
1849.000000	19.634399
1848.000000	19.665752
1847.000000	19.673947
1846.000000	19.702332
1845.000000	19.697225
1844.000000	19.684992
1843.000000	19.671928
1842.000000	19.669672
1841.000000	19.676797
1840.000000	19.698294
1839.000000	19.683092
1838.000000	19.673235
1837.000000	19.654589
1836.000000	19.634161
1835.000000	19.601145
1834.000000	19.570741
1833.000000	19.542594
1832.000000	19.498652
1831.000000	19.461360
1830.000000	19.436538
1829.000000	19.398415
1828.000000	19.366942
1827.000000	19.310648
1826.000000	19.256136
1825.000000	19.222882
1824.000000	19.192360
1823.000000	19.167300
1822.000000	19.130009
1821.000000	19.114807
1820.000000	19.105424
1819.000000	19.075615
1818.000000	19.050793
1817.000000	19.020508
1816.000000	19.010413
1815.000000	19.003881
1814.000000	18.990224
1813.000000	18.975378
1812.000000	18.955901
1811.000000	18.955069
1810.000000	18.930129
1809.000000	18.879892
1808.000000	18.849845
1807.000000	18.816353
1806.000000	18.787137
1805.000000	18.761841
1804.000000	18.722411
1803.000000	18.690582
1802.000000	18.662792
1801.000000	18.630844
1800.000000	18.589989
1799.000000	18.543434
1798.000000	18.505073
1797.000000	18.459468
1796.000000	18.423364
1795.000000	18.402936
1794.000000	18.372770
1793.000000	18.324433
1792.000000	18.281084
1791.000000	18.236548
1790.000000	18.198662
1789.000000	18.160539
1788.000000	18.115053
1787.000000	18.082868
1786.000000	18.056027
1785.000000	18.018141
1784.000000	17.968142
1783.000000	17.914579
1782.000000	17.855078
1781.000000	17.804248
1780.000000	17.763393
1779.000000	17.720519
1778.000000	17.671470
1777.000000	17.610544
1776.000000	17.551518
1775.000000	17.490711
1774.000000	17.430379
1773.000000	17.361615
1772.000000	17.307815
1771.000000	17.230143
1770.000000	17.163160
1769.000000	17.103066
1768.000000	17.019100
1767.000000	16.940478
1766.000000	16.889172
1765.000000	16.828127
1764.000000	16.762807
1763.000000	16.740836
1762.000000	16.735967
1761.000000	16.743924
1760.000000	16.773852
1759.000000	16.810313
1758.000000	16.846892
1757.000000	16.893566
1756.000000	16.935371
1755.000000	16.988696
1754.000000	17.044753
1753.000000	17.075869
1752.000000	17.117792
1751.000000	17.138695
1750.000000	17.149027
1749.000000	17.140001
1748.000000	17.134063
1747.000000	17.108766
1746.000000	17.066843
1745.000000	17.018862
1744.000000	16.964587
1743.000000	16.900217
1742.000000	16.804731
1741.000000	16.697131
1740.000000	16.576942
1739.000000	16.425043
1738.000000	16.289177
1737.000000	16.149036
1736.000000	16.018633
1735.000000	15.917090
1734.000000	15.839299
1733.000000	15.791556
1732.000000	15.766378
1731.000000	15.761865
1730.000000	15.765428
1729.000000	15.824573
1728.000000	15.901532
1727.000000	15.941793
1726.000000	16.012457
1725.000000	16.094760
1724.000000	16.162456
1723.000000	16.220650
1722.000000	16.249391
1721.000000	16.293452
1720.000000	16.359129
1719.000000	16.375993
1718.000000	16.430150
1717.000000	16.490719
1716.000000	16.582286
1715.000000	16.651525
1714.000000	16.724090
1713.000000	16.797130
1712.000000	16.863044
1711.000000	16.922663
1710.000000	16.979314
1709.000000	17.002473
1708.000000	17.027769
1707.000000	17.033945
1706.000000	17.049741
1705.000000	17.013636
1704.000000	16.975632
1703.000000	16.935134
1702.000000	16.882284
1701.000000	16.808769
1700.000000	16.711501
1699.000000	16.629792
1698.000000	16.501052
1697.000000	16.402834
1696.000000	16.308654
1695.000000	16.243453
1694.000000	16.239771
1693.000000	16.232527
1692.000000	16.249035
1691.000000	16.337633
1690.000000	16.435732
1689.000000	16.524211
1688.000000	16.625872
1687.000000	16.722190
1686.000000	16.809481
1685.000000	16.827058
1684.000000	16.895348
1683.000000	16.995347
1682.000000	17.109479
1681.000000	17.298907
1680.000000	17.544036
1679.000000	17.892252
1678.000000	18.254719
1677.000000	18.626450
1676.000000	18.992480
1675.000000	19.332739
1674.000000	19.675491
1673.000000	19.933802
1672.000000	20.198527
1671.000000	20.409927
1670.000000	20.604937
1669.000000	20.770969
1668.000000	20.928094
1667.000000	21.091750
1666.000000	21.218709
1665.000000	21.320014
1664.000000	21.428564
1663.000000	21.494478
1662.000000	21.571081
1661.000000	21.651603
1660.000000	21.681531
1659.000000	21.759916
1658.000000	21.783312
1657.000000	21.848870
1656.000000	21.860509
1655.000000	21.886874
1654.000000	21.884143
1653.000000	21.893287
1652.000000	21.869535
1651.000000	21.879867
1650.000000	21.866566
1649.000000	21.816210
1648.000000	21.801602
1647.000000	21.784500
1646.000000	21.748633
1645.000000	21.697090
1644.000000	21.658610
1643.000000	21.646615
1642.000000	21.602791
1641.000000	21.536877
1640.000000	21.491509
1639.000000	21.443647
1638.000000	21.407543
1637.000000	21.360394
1636.000000	21.284029
1635.000000	21.237711
1634.000000	21.204813
1633.000000	21.134743
1632.000000	21.072510
1631.000000	21.005765
1630.000000	20.944245
1629.000000	20.869187
1628.000000	20.838664
1627.000000	20.772275
1626.000000	20.681302
1625.000000	20.615982
1624.000000	20.546030
1623.000000	20.458026
1622.000000	20.415627
1621.000000	20.361234
1620.000000	20.312778
1619.000000	20.237957
1618.000000	20.160879
1617.000000	20.106366
1616.000000	20.077507
1615.000000	20.011118
1614.000000	19.911475
1613.000000	19.874777
1612.000000	19.814801
1611.000000	19.756013
1610.000000	19.687249
1609.000000	19.630598
1608.000000	19.581786
1607.000000	19.517654
1606.000000	19.459697
1605.000000	19.391289
1604.000000	19.313618
1603.000000	19.244378
1602.000000	19.191053
1601.000000	19.115282
1600.000000	19.068726
1599.000000	18.998775
1598.000000	18.950675
1597.000000	18.876685
1596.000000	18.836306
1595.000000	18.764691
1594.000000	18.699965
1593.000000	18.645096
1592.000000	18.586545
1591.000000	18.531795
1590.000000	18.466950
1589.000000	18.436903
1588.000000	18.382509
1587.000000	18.318258
1586.000000	18.271227
1585.000000	18.232629
1584.000000	18.184886
1583.000000	18.137024
1582.000000	18.099732
1581.000000	18.037619
1580.000000	18.012322
1579.000000	17.986550
1578.000000	17.942607
1577.000000	17.915529
1576.000000	17.874793
1575.000000	17.841302
1574.000000	17.821825
1573.000000	17.794271
1572.000000	17.798309
1571.000000	17.795221
1570.000000	17.773013
1569.000000	17.731683
1568.000000	17.734652
1567.000000	17.716837
1566.000000	17.707930
1565.000000	17.703179
1564.000000	17.698666
1563.000000	17.697241
1562.000000	17.687621
1561.000000	17.670401
1560.000000	17.645460
1559.000000	17.633703
1558.000000	17.623964
1557.000000	17.607456
1556.000000	17.586197
1555.000000	17.578240
1554.000000	17.538573
1553.000000	17.511613
1552.000000	17.489167
1551.000000	17.460070
1550.000000	17.430023
1549.000000	17.396294
1548.000000	17.347838
1547.000000	17.303539
1546.000000	17.267791
1545.000000	17.244632
1544.000000	17.215179
1543.000000	17.190357
1542.000000	17.151759
1541.000000	17.135013
1540.000000	17.103184
1539.000000	17.087151
1538.000000	17.068624
1537.000000	17.039408
1536.000000	17.017318
1535.000000	16.961974
1534.000000	16.922188
1533.000000	16.897010
1532.000000	16.869932
1531.000000	16.843210
1530.000000	16.820408
1529.000000	16.775634
1528.000000	16.729197
1527.000000	16.683235
1526.000000	16.655326
1525.000000	16.617321
1524.000000	16.576823
1523.000000	16.526586
1522.000000	16.471479
1521.000000	16.428249
1520.000000	16.372668
1519.000000	16.308773
1518.000000	16.270175
1517.000000	16.229082
1516.000000	16.169938
1515.000000	16.110912
1514.000000	16.050699
1513.000000	15.994643
1512.000000	15.956163
1511.000000	15.908182
1510.000000	15.846900
1509.000000	15.787993
1508.000000	15.733600
1507.000000	15.688113
1506.000000	15.618992
1505.000000	15.561748
1504.000000	15.495122
1503.000000	15.425051
1502.000000	15.389303
1501.000000	15.334672
1500.000000	15.278496
1499.000000	15.221371
1498.000000	15.170065
1497.000000	15.137642
1496.000000	15.099519
1495.000000	15.057358
1494.000000	14.998451
1493.000000	14.951777
1492.000000	14.921136
1491.000000	14.898333
1490.000000	14.871493
1489.000000	14.836101
1488.000000	14.788833
1487.000000	14.764486
1486.000000	14.732420
1485.000000	14.700591
1484.000000	14.669357
1483.000000	14.634440
1482.000000	14.609500
1481.000000	14.580046
1480.000000	14.566507
1479.000000	14.548336
1478.000000	14.516151
1477.000000	14.511638
1476.000000	14.505344
1475.000000	14.484916
1474.000000	14.473990
1473.000000	14.475059
1472.000000	14.469239
1471.000000	14.464133
1470.000000	14.459026
1469.000000	14.460807
1468.000000	14.452375
1467.000000	14.455938
1466.000000	14.466270
1465.000000	14.479216
1464.000000	14.489786
1463.000000	14.485391
1462.000000	14.479809
1461.000000	14.511044
1460.000000	14.558431
1459.000000	14.579334
1458.000000	14.584203
1457.000000	14.634440
1456.000000	14.690259
1455.000000	14.713418
1454.000000	14.765199
1453.000000	14.804510
1452.000000	14.862585
1451.000000	14.907953
1450.000000	14.973273
1449.000000	15.009021
1448.000000	15.078498
1447.000000	15.126954
1446.000000	15.217808
1445.000000	15.269589
1444.000000	15.323152
1443.000000	15.393579
1442.000000	15.471725
1441.000000	15.550703
1440.000000	15.624456
1439.000000	15.704740
1438.000000	15.802483
1437.000000	15.889180
1436.000000	15.971246
1435.000000	16.071364
1434.000000	16.142741
1433.000000	16.248203
1432.000000	16.355922
1431.000000	16.479912
1430.000000	16.581336
1429.000000	16.693687
1428.000000	16.806987
1427.000000	16.957342
1426.000000	17.104966
1425.000000	17.242376
1424.000000	17.415296
1423.000000	17.585009
1422.000000	17.770637
1421.000000	17.958047
1420.000000	18.144625
1419.000000	18.352343
1418.000000	18.583101
1417.000000	18.811840
1416.000000	19.007326
1415.000000	19.268012
1414.000000	19.512903
1413.000000	19.811476
1412.000000	20.073944
1411.000000	20.312897
1410.000000	20.617882
1409.000000	20.970017
1408.000000	21.326903
1407.000000	21.686401
1406.000000	22.046374
1405.000000	22.454803
1404.000000	22.887460
1403.000000	23.273205
1402.000000	23.711325
1401.000000	24.087569
1400.000000	24.579489
1399.000000	25.070340
1398.000000	25.460241
1397.000000	25.785417
1396.000000	26.157385
1395.000000	26.671514
1394.000000	27.114385
1393.000000	27.495142
1392.000000	27.881599
1391.000000	28.358436
1390.000000	28.801425
1389.000000	29.237170
1388.000000	29.735266
1387.000000	30.330273
1386.000000	30.894520
1385.000000	31.456035
1384.000000	32.046529
1383.000000	32.666358
1382.000000	33.283099
1381.000000	33.888676
1380.000000	34.392828
1379.000000	34.773823
1378.000000	35.098404
1377.000000	35.346264
1376.000000	35.597688
1375.000000	35.863244
1374.000000	36.097208
1373.000000	36.395662
1372.000000	36.703854
1371.000000	37.028792
1370.000000	37.405511
1369.000000	37.714178
1368.000000	38.011563
1367.000000	38.306573
1366.000000	38.578661
1365.000000	38.806687
1364.000000	39.033170
1363.000000	39.250864
1362.000000	39.408820
1361.000000	39.607393
1360.000000	39.812023
1359.000000	39.898008
1358.000000	39.997651
1357.000000	40.094325
1356.000000	40.248362
1355.000000	40.413562
1354.000000	40.705959
1353.000000	41.053225
1352.000000	41.421630
1351.000000	41.784097
1350.000000	42.206540
1349.000000	42.606062
1348.000000	42.961879
1347.000000	43.337291
1346.000000	43.712941
1345.000000	43.990255
1344.000000	44.329088
1343.000000	44.690249
1342.000000	44.979558
1341.000000	45.268510
1340.000000	45.589292
1339.000000	45.898790
1338.000000	46.204964
1337.000000	46.489997
1336.000000	46.777880
1335.000000	47.054006
1334.000000	47.341534
1333.000000	47.599489
1332.000000	47.845211
1331.000000	48.116824
1330.000000	48.378580
1329.000000	48.618008
1328.000000	48.849241
1327.000000	49.067529
1326.000000	49.306126
1325.000000	49.506362
1324.000000	49.715623
1323.000000	49.893413
1322.000000	50.098518
1321.000000	50.279277
1320.000000	50.451484
1319.000000	50.615735
1318.000000	50.744950
1317.000000	50.895424
1316.000000	51.050648
1315.000000	51.195421
1314.000000	51.338175
1313.000000	51.466322
1312.000000	51.563114
1311.000000	51.681165
1310.000000	51.802305
1309.000000	51.907173
1308.000000	52.002184
1307.000000	52.103965
1306.000000	52.162515
1305.000000	52.230686
1304.000000	52.297669
1303.000000	52.360020
1302.000000	52.407169
1301.000000	52.436029
1300.000000	52.474746
1299.000000	52.496004
1298.000000	52.529615
1297.000000	52.551230
1296.000000	52.580683
1295.000000	52.597191
1294.000000	52.606692
1293.000000	52.611087
1292.000000	52.604911
1291.000000	52.610849
1290.000000	52.607286
1289.000000	52.591847
1288.000000	52.562275
1287.000000	52.520945
1286.000000	52.500280
1285.000000	52.478190
1284.000000	52.424746
1283.000000	52.372846
1282.000000	52.313464
1281.000000	52.275104
1280.000000	52.232824
1279.000000	52.165722
1278.000000	52.103490
1277.000000	52.048383
1276.000000	51.982232
1275.000000	51.935201
1274.000000	51.900760
1273.000000	51.855986
1272.000000	51.814419
1271.000000	51.772970
1270.000000	51.726771
1269.000000	51.688766
1268.000000	51.626297
1267.000000	51.561927
1266.000000	51.518221
1265.000000	51.489243
1264.000000	51.419766
1263.000000	51.362403
1262.000000	51.311929
1261.000000	51.257297
1260.000000	51.199578
1259.000000	51.138415
1258.000000	51.079270
1257.000000	51.022857
1256.000000	50.961338
1255.000000	50.899580
1254.000000	50.837704
1253.000000	50.761696
1252.000000	50.675117
1251.000000	50.583669
1250.000000	50.487945
1249.000000	50.398278
1248.000000	50.331177
1247.000000	50.232484
1246.000000	50.115145
1245.000000	50.004932
1244.000000	49.886643
1243.000000	49.763248
1242.000000	49.651016
1241.000000	49.531777
1240.000000	49.410044
1239.000000	49.292112
1238.000000	49.171922
1237.000000	49.044608
1236.000000	48.914680
1235.000000	48.784871
1234.000000	48.661594
1233.000000	48.509814
1232.000000	48.365991
1231.000000	48.220743
1230.000000	48.062312
1229.000000	47.915044
1228.000000	47.766590
1227.000000	47.612672
1226.000000	47.455903
1225.000000	47.297235
1224.000000	47.129421
1223.000000	46.957095
1222.000000	46.804246
1221.000000	46.635601
1220.000000	46.457931
1219.000000	46.288336
1218.000000	46.133468
1217.000000	45.980144
1216.000000	45.820050
1215.000000	45.662094
1214.000000	45.524090
1213.000000	45.378605
1212.000000	45.228725
1211.000000	45.087989
1210.000000	44.953549
1209.000000	44.798443
1208.000000	44.671841
1207.000000	44.560915
1206.000000	44.429681
1205.000000	44.318875
1204.000000	44.212106
1203.000000	44.132178
1202.000000	44.056644
1201.000000	43.953794
1200.000000	43.887643
1199.000000	43.812703
1198.000000	43.714367
1197.000000	43.612467
1196.000000	43.493466
1195.000000	43.352137
1194.000000	43.166271
1193.000000	42.939314
1192.000000	42.679339
1191.000000	42.380530
1190.000000	42.050128
1189.000000	41.730416
1188.000000	41.453340
1187.000000	41.216050
1186.000000	41.036598
1185.000000	40.914983
1184.000000	40.888618
1183.000000	40.968427
1182.000000	41.128283
1181.000000	41.360467
1180.000000	41.647994
1179.000000	41.965925
1178.000000	42.284687
1177.000000	42.578746
1176.000000	42.842521
1175.000000	43.062353
1174.000000	43.265677
1173.000000	43.470069
1172.000000	43.652134
1171.000000	43.815078
1170.000000	44.034910
1169.000000	44.227783
1168.000000	44.440251
1167.000000	44.639775
1166.000000	44.836091
1165.000000	45.060199
1164.000000	45.274092
1163.000000	45.508413
1162.000000	45.735252
1161.000000	45.964942
1160.000000	46.180498
1159.000000	46.411731
1158.000000	46.626219
1157.000000	46.835956
1156.000000	47.023365
1155.000000	47.207687
1154.000000	47.364693
1153.000000	47.498540
1152.000000	47.598182
1151.000000	47.683811
1150.000000	47.747231
1149.000000	47.779416
1148.000000	47.843905
1147.000000	47.895211
1146.000000	47.949367
1145.000000	48.050673
1144.000000	48.177156
1143.000000	48.294139
1142.000000	48.480004
1141.000000	48.668126
1140.000000	48.847935
1139.000000	49.049952
1138.000000	49.247456
1137.000000	49.482015
1136.000000	49.740208
1135.000000	49.992224
1134.000000	50.243885
1133.000000	50.449940
1132.000000	50.623573
1131.000000	50.793999
1130.000000	50.946730
1129.000000	51.086040
1128.000000	51.193165
1127.000000	51.279150
1126.000000	51.305515
1125.000000	51.355871
1124.000000	51.373330
1123.000000	51.364541
1122.000000	51.370717
1121.000000	51.349695
1120.000000	51.300765
1119.000000	51.276656
1118.000000	51.220005
1117.000000	51.150172
1116.000000	51.099816
1115.000000	51.037703
1114.000000	50.965732
1113.000000	50.888773
1112.000000	50.803738
1111.000000	50.751126
1110.000000	50.681649
1109.000000	50.612291
1108.000000	50.535332
1107.000000	50.460985
1106.000000	50.384383
1105.000000	50.307661
1104.000000	50.229158
1103.000000	50.164076
1102.000000	50.080229
1101.000000	49.993768
1100.000000	49.941750
1099.000000	49.849708
1098.000000	49.754816
1097.000000	49.661348
1096.000000	49.598641
1095.000000	49.489616
1094.000000	49.408025
1093.000000	49.320021
1092.000000	49.232611
1091.000000	49.134156
1090.000000	49.020261
1089.000000	48.936889
1088.000000	48.856367
1087.000000	48.726202
1086.000000	48.635229
1085.000000	48.533567
1084.000000	48.430717
1083.000000	48.319198
1082.000000	48.233213
1081.000000	48.106848
1080.000000	48.024782
1079.000000	47.925258
1078.000000	47.821340
1077.000000	47.715521
1076.000000	47.603408
1075.000000	47.522411
1074.000000	47.378944
1073.000000	47.289396
1072.000000	47.177165
1071.000000	47.076453
1070.000000	46.969684
1069.000000	46.884887
1068.000000	46.743676
1067.000000	46.643915
1066.000000	46.524082
1065.000000	46.410069
1064.000000	46.315176
1063.000000	46.212208
1062.000000	46.114584
1061.000000	46.003540
1060.000000	45.879076
1059.000000	45.751286
1058.000000	45.637866
1057.000000	45.540955
1056.000000	45.404139
1055.000000	45.340125
1054.000000	45.197015
1053.000000	45.076588
1052.000000	44.961506
1051.000000	44.860557
1050.000000	44.758895
1049.000000	44.648444
1048.000000	44.537163
1047.000000	44.416974
1046.000000	44.340371
1045.000000	44.234671
1044.000000	44.121370
1043.000000	43.992868
1042.000000	43.912108
1041.000000	43.813059
1040.000000	43.690614
1039.000000	43.598215
1038.000000	43.507836
1037.000000	43.408312
1036.000000	43.292280
1035.000000	43.207126
1034.000000	43.095963
1033.000000	42.998933
1032.000000	42.891452
1031.000000	42.801072
1030.000000	42.675420
1029.000000	42.564376
1028.000000	42.480291
1027.000000	42.380530
1026.000000	42.271861
1025.000000	42.156660
1024.000000	42.084807
1023.000000	41.974476
1022.000000	41.852149
1021.000000	41.770440
1020.000000	41.656545
1019.000000	41.555833
1018.000000	41.491938
1017.000000	41.398590
1016.000000	41.270919
1015.000000	41.191584
1014.000000	41.109519
1013.000000	41.049187
1012.000000	40.960945
1011.000000	40.880186
1010.000000	40.818666
1009.000000	40.763322
1008.000000	40.693014
1007.000000	40.629119
1006.000000	40.554654
1005.000000	40.512611
1004.000000	40.432565
1003.000000	40.387078
1002.000000	40.324727
1001.000000	40.269264
1000.000000	40.230191
999.000000	40.181379
998.000000	40.121878
997.000000	40.090643
996.000000	40.032449
995.000000	39.970098
994.000000	39.945514
993.000000	39.888032
992.000000	39.837914
991.000000	39.805254
990.000000	39.775088
989.000000	39.742428
988.000000	39.713568
987.000000	39.656205
986.000000	39.632452
985.000000	39.599080
984.000000	39.592548
983.000000	39.573783
982.000000	39.545992
981.000000	39.520339
980.000000	39.507157
979.000000	39.493974
978.000000	39.481147
977.000000	39.466183
976.000000	39.468915
975.000000	39.460007
974.000000	39.456919
973.000000	39.462501
972.000000	39.451694
971.000000	39.435304
970.000000	39.436373
969.000000	39.443380
968.000000	39.459889
967.000000	39.472121
966.000000	39.457038
965.000000	39.477703
964.000000	39.495636
963.000000	39.496468
962.000000	39.516539
961.000000	39.529484
960.000000	39.531384
959.000000	39.562144
958.000000	39.593854
957.000000	39.603593
956.000000	39.606799
955.000000	39.642191
954.000000	39.674495
953.000000	39.697891
952.000000	39.739696
951.000000	39.773069
950.000000	39.798128
949.000000	39.834589
948.000000	39.863686
947.000000	39.889814
946.000000	39.944801
945.000000	39.999195
944.000000	40.006321
943.000000	40.027699
942.000000	40.078173
941.000000	40.116059
940.000000	40.137674
939.000000	40.183873
938.000000	40.224015
937.000000	40.255369
936.000000	40.278765
935.000000	40.308694
934.000000	40.348836
933.000000	40.408099
932.000000	40.447648
931.000000	40.476507
930.000000	40.509524
929.000000	40.548478
928.000000	40.596577
927.000000	40.632919
926.000000	40.670924
925.000000	40.738738
924.000000	40.779474
923.000000	40.793963
922.000000	40.830899
921.000000	40.853582
920.000000	40.881017
919.000000	40.929829
918.000000	40.996930
917.000000	41.046217
916.000000	41.071277
915.000000	41.070445
914.000000	41.092179
913.000000	41.167119
912.000000	41.200611
911.000000	41.242534
910.000000	41.289090
909.000000	41.324244
908.000000	41.355241
907.000000	41.371274
906.000000	41.414979
905.000000	41.440989
904.000000	41.466285
903.000000	41.535168
902.000000	41.573054
901.000000	41.619728
900.000000	41.671747
899.000000	41.722578
898.000000	41.750843
897.000000	41.788492
896.000000	41.834097
895.000000	41.862957
894.000000	41.900961
893.000000	41.940509
892.000000	41.962243
891.000000	41.956424
890.000000	41.986946
889.000000	42.026851
888.000000	42.063549
887.000000	42.068774
886.000000	42.071268
885.000000	42.078869
884.000000	42.092408
883.000000	42.063786
882.000000	42.097753
881.000000	42.102147
880.000000	42.086114
879.000000	42.097990
878.000000	42.083264
877.000000	42.088489
876.000000	42.057017
875.000000	42.006067
874.000000	41.976614
873.000000	41.890866
872.000000	41.794192
871.000000	41.685286
870.000000	41.588375
869.000000	41.578873
868.000000	41.669371
867.000000	41.759276
866.000000	41.910106
865.000000	42.043953
864.000000	42.138726
863.000000	42.263428
862.000000	42.368653
861.000000	42.476728
860.000000	42.593354
859.000000	42.752973
858.000000	42.859267
857.000000	42.027200
856.000000	43.382200
855.000000	43.168400
854.000000	43.680300
853.000000	43.722700
852.000000	44.216300
851.000000	43.907200
850.000000	44.135400
849.000000	44.198200
848.000000	44.052200
847.000000	44.217600
846.000000	44.474900
845.000000	44.488600
844.000000	44.533000
843.000000	44.778900
842.000000	44.993900
841.000000	44.830800
840.000000	44.848200
839.000000	45.278100
838.000000	45.145700
837.000000	45.314700
836.000000	45.466100
835.000000	45.466400
834.000000	45.490400
833.000000	45.665400
832.000000	45.604600
831.000000	45.566100
830.000000	45.695800
829.000000	45.683200
828.000000	45.758600
827.000000	45.956600
826.000000	45.953000
825.000000	46.075500
824.000000	45.923700
823.000000	46.065600
822.000000	46.012600
821.000000	46.216500
820.000000	46.061000
819.000000	46.172100
818.000000	46.250700
817.000000	46.197100
816.000000	46.189300
815.000000	46.189600
814.000000	46.350400
813.000000	46.188300
812.000000	46.257400
811.000000	46.190300
810.000000	46.195100
809.000000	46.253500
808.000000	46.284300
807.000000	46.433800
806.000000	46.330200
805.000000	46.296400
804.000000	46.448200
803.000000	46.251500
802.000000	46.312100
801.000000	46.331300
800.000000	46.297500
799.000000	46.356500
798.000000	46.308600
797.000000	46.246300
796.000000	46.330300
795.000000	46.200100
794.000000	46.136400
793.000000	46.067800
792.000000	46.130900
791.000000	46.074600
790.000000	46.003300
789.000000	45.980300
788.000000	46.088700
787.000000	46.055100
786.000000	45.891900
785.000000	45.991500
784.000000	45.945400
783.000000	45.791400
782.000000	45.850000
781.000000	45.798800
780.000000	45.779100
779.000000	45.707400
778.000000	45.613200
777.000000	45.518200
776.000000	45.426300
775.000000	45.452500
774.000000	45.414400
773.000000	45.350200
772.000000	45.224700
771.000000	45.081400
770.000000	45.180900
769.000000	45.078200
768.000000	44.883800
767.000000	44.826500
766.000000	44.800000
765.000000	44.829700
764.000000	44.786600
763.000000	44.610300
762.000000	44.512500
761.000000	44.409800
760.000000	44.371400
759.000000	44.342200
758.000000	44.238000
757.000000	44.072400
756.000000	43.999500
755.000000	43.841800
754.000000	43.745000
753.000000	43.600500
752.000000	43.491900
751.000000	43.334500
750.000000	43.219400
749.000000	43.143500
748.000000	43.041500
747.000000	42.892400
746.000000	42.815300
745.000000	42.692800
744.000000	42.524900
743.000000	42.401200
742.000000	42.258100
741.000000	42.176000
740.000000	41.945300
739.000000	41.785100
738.000000	41.627200
737.000000	41.480000
736.000000	41.296100
735.000000	41.153300
734.000000	40.969700
733.000000	40.783600
732.000000	40.632400
731.000000	40.461800
730.000000	40.322600
729.000000	40.145100
728.000000	39.940900
727.000000	39.760300
726.000000	39.568800
725.000000	39.420800
724.000000	39.200700
723.000000	39.003400
722.000000	38.793400
721.000000	38.549500
720.000000	38.390600
719.000000	38.164000
718.000000	37.949900
717.000000	37.781300
716.000000	37.561900
715.000000	37.325200
714.000000	37.118800
713.000000	36.877500
712.000000	36.708200
711.000000	36.502400
710.000000	36.314200
709.000000	36.072400
708.000000	35.880000
707.000000	35.653900
706.000000	35.417200
705.000000	35.197500
704.000000	35.017400
703.000000	34.829100
702.000000	34.594700
701.000000	34.399000
700.000000	34.194000
699.000000	33.999500
698.000000	33.799200
697.000000	33.558300
696.000000	33.365100
695.000000	33.176100
694.000000	32.968500
693.000000	32.752100
692.000000	32.558700
691.000000	32.347100
690.000000	32.167800
689.000000	31.961200
688.000000	31.752000
687.000000	31.596400
686.000000	31.395500
685.000000	31.247100
684.000000	31.065000
683.000000	30.882200
682.000000	30.707600
681.000000	30.528600
680.000000	30.365900
679.000000	30.197100
678.000000	30.036900
677.000000	29.875500
676.000000	29.694300
675.000000	29.525300
674.000000	29.381100
673.000000	29.251200
672.000000	29.090500
671.000000	28.945300
670.000000	28.821900
669.000000	28.695000
668.000000	28.553600
667.000000	28.411300
666.000000	28.268200
665.000000	28.160100
664.000000	28.038800
663.000000	27.911000
662.000000	27.801900
661.000000	27.681900
660.000000	27.568100
659.000000	27.471000
658.000000	27.376100
657.000000	27.280200
656.000000	27.210700
655.000000	27.135100
654.000000	27.040100
653.000000	26.971900
652.000000	26.893900
651.000000	26.814000
650.000000	26.756400
649.000000	26.713400
648.000000	26.646900
647.000000	26.597100
646.000000	26.563200
645.000000	26.514600
644.000000	26.474700
643.000000	26.447300
642.000000	26.428600
641.000000	26.398400
640.000000	26.374900
639.000000	26.352500
638.000000	26.348200
637.000000	26.336700
636.000000	26.346800
635.000000	26.360700
634.000000	26.370300
633.000000	26.395500
632.000000	26.407300
631.000000	26.428300
630.000000	26.477100
629.000000	26.522700
628.000000	26.557900
627.000000	26.589000
626.000000	26.644800
625.000000	26.725000
624.000000	26.799800
623.000000	26.885800
622.000000	26.970000
621.000000	27.069600
620.000000	27.170200
619.000000	27.274600
618.000000	27.381900
617.000000	27.495600
616.000000	27.602600
615.000000	27.722300
614.000000	27.863800
613.000000	27.990400
612.000000	28.127100
611.000000	28.279800
610.000000	28.434900
609.000000	28.579500
608.000000	28.727200
607.000000	28.875900
606.000000	29.018400
605.000000	29.175000
604.000000	29.321800
603.000000	29.465900
602.000000	29.630200
601.000000	29.770700
600.000000	29.909000
599.000000	30.071900
598.000000	30.205800
597.000000	30.325400
596.000000	30.472500
595.000000	30.595600
594.000000	30.714300
593.000000	30.848600
592.000000	30.959900
591.000000	31.081800
590.000000	31.192900
589.000000	31.299900
588.000000	31.372800
587.000000	31.449200
586.000000	31.547300
585.000000	31.625800
584.000000	31.680800
583.000000	31.726300
582.000000	31.759100
581.000000	31.818500
580.000000	31.861200
579.000000	31.897900
578.000000	31.922800
577.000000	31.923000
576.000000	31.910400
575.000000	31.911300
574.000000	31.896200
573.000000	31.851000
572.000000	31.807300
571.000000	31.781200
570.000000	31.713300
569.000000	31.638000
568.000000	31.572800
567.000000	31.499600
566.000000	31.409100
565.000000	31.296200
564.000000	31.202400
563.000000	31.077200
562.000000	30.953100
561.000000	30.810500
560.000000	30.658000
559.000000	30.426400
558.000000	30.273400
557.000000	30.114500
556.000000	29.944400
555.000000	29.756000
554.000000	29.614500
553.000000	29.300800
552.000000	29.054400
551.000000	28.818300
550.000000	28.595500
549.000000	28.327200
548.000000	28.076400
547.000000	27.819300
546.000000	27.557600
545.000000	27.295700
544.000000	27.023600
543.000000	26.726100
542.000000	26.445900
541.000000	26.159800
540.000000	25.863900
539.000000	25.561200
538.000000	25.245100
537.000000	24.936600
536.000000	24.615300
535.000000	24.322600
534.000000	24.005700
533.000000	23.699000
532.000000	23.369300
531.000000	23.047200
530.000000	22.708000
529.000000	22.399200
528.000000	22.092700
527.000000	21.785700
526.000000	21.458100
525.000000	21.150800
524.000000	20.849600
523.000000	20.521400
522.000000	20.219800
521.000000	19.928300
520.000000	19.639300
519.000000	19.349000
518.000000	19.074900
517.000000	18.797400
516.000000	18.514000
515.000000	18.243300
514.000000	17.990200
513.000000	17.727300
512.000000	17.492600
511.000000	17.252100
510.000000	17.001200
509.000000	16.794800
508.000000	16.589600
507.000000	16.388500
506.000000	16.191000
505.000000	15.996200
504.000000	15.804400
503.000000	15.667000
502.000000	15.459800
501.000000	15.315800
500.000000	15.117600
499.000000	14.974800
498.000000	14.806500
497.000000	14.655100
496.000000	14.563500
495.000000	14.397200
494.000000	14.308200
493.000000	14.176700
492.000000	14.063900
491.000000	13.954900
490.000000	13.877000
489.000000	13.773800
488.000000	13.692200
487.000000	13.613800
486.000000	13.533400
485.000000	13.445200
484.000000	13.372300
483.000000	13.287400
482.000000	13.229900
481.000000	13.145800
480.000000	13.047100
479.000000	12.966600
478.000000	12.879600
477.000000	12.839700
476.000000	12.755500
475.000000	12.688900
474.000000	12.614100
473.000000	12.566700
472.000000	12.494100
471.000000	12.421900
470.000000	12.371100
469.000000	12.293400
468.000000	12.269100
467.000000	12.215300
466.000000	12.166000
465.000000	12.112800
464.000000	12.105300
463.000000	12.041300
462.000000	12.008800
461.000000	11.970900
460.000000	11.956500
459.000000	11.915800
458.000000	11.893300
457.000000	11.850000
456.000000	11.820400
455.000000	11.809900
454.000000	11.746100
453.000000	11.707000
452.000000	11.699800
451.000000	11.658200
450.000000	11.637200
449.000000	11.604100
448.000000	11.537100
447.000000	11.489900
446.000000	11.441300
445.000000	11.408300
444.000000	11.362200
443.000000	11.300900
442.000000	11.235400
441.000000	11.157400
440.000000	11.096800
439.000000	11.065200
438.000000	10.992600
437.000000	10.901600
436.000000	10.849300
435.000000	10.765400
434.000000	10.685100
433.000000	10.596400
432.000000	10.536200
431.000000	10.455000
430.000000	10.360300
429.000000	10.256800
428.000000	10.187500
427.000000	10.089200
426.000000	10.010700
425.000000	9.917100
424.000000	9.807400
423.000000	9.723500
422.000000	9.637000
421.000000	9.545400
420.000000	9.421600
419.000000	9.341400
418.000000	9.240500
417.000000	9.155300
416.000000	9.048500
415.000000	8.947800
414.000000	8.833100
413.000000	8.713200
412.000000	8.615700
411.000000	8.496800
410.000000	8.386800
409.000000	8.286500
408.000000	8.172400
407.000000	8.097500
406.000000	7.981900
405.000000	7.850100
404.000000	7.757900
403.000000	7.654800
402.000000	7.566500
401.000000	7.457500
400.000000	7.334800
399.000000	7.237900
398.000000	7.149900
397.000000	7.041100
396.000000	6.930800
395.000000	6.854300
394.000000	6.770700
393.000000	6.664300
392.000000	6.566900
391.000000	6.487400
390.000000	6.400200
389.000000	6.316000
388.000000	6.218500
387.000000	6.143400
386.000000	6.048900
385.000000	5.980300
384.000000	5.930300
383.000000	5.851700
382.000000	5.780200
381.000000	5.707700
380.000000	5.628500
379.000000	5.602400
378.000000	5.539700
377.000000	5.482000
376.000000	5.412700
375.000000	5.206100
374.000000	4.958700
373.000000	4.996700
372.000000	5.023000
371.000000	5.127800
370.000000	5.160200
369.000000	4.972600
368.000000	5.057700
367.000000	5.091000
366.000000	4.974400
365.000000	4.973800
364.000000	4.948400
363.000000	4.846700
362.000000	4.865700
361.000000	4.925700
360.000000	4.881200
359.000000	4.952700
358.000000	4.957700
357.000000	4.875900
356.000000	4.879100
355.000000	4.768000
354.000000	4.773300
353.000000	4.856200
352.000000	4.807400
351.000000	4.842800
350.000000	4.880700
349.000000	4.814500
348.000000	4.761800
347.000000	4.810400
346.000000	4.658700
345.000000	4.748200
344.000000	4.937200
343.000000	4.869500
342.000000	4.866000
341.000000	4.843200
340.000000	4.712400
339.000000	4.800400
338.000000	4.863600
337.000000	4.664600
336.000000	4.622500
335.000000	4.800700
334.000000	4.836200
333.000000	4.800600
332.000000	4.880200
331.000000	4.810600
330.000000	4.650100
329.000000	4.778900
328.000000	4.610100
327.000000	4.624400
326.000000	4.710200
325.000000	4.460900
324.000000	4.585700
323.000000	4.876300
322.000000	4.973500
321.000000	5.270200
320.000000	5.416200
319.000000	4.775000
318.000000	4.792600
317.000000	5.553100
316.000000	5.151400
315.000000	4.602800
314.000000	4.579700
313.000000	4.580800
312.000000	4.593300
311.000000	4.601400
310.000000	4.574900
309.000000	4.581500
308.000000	4.598100
307.000000	4.555100
306.000000	4.589300
305.000000	4.602900
304.000000	4.620000
303.000000	4.624800
302.000000	4.586700
301.000000	4.588900
300.000000	4.574700
299.000000	4.600000
298.000000	4.675700
297.000000	4.614500
296.000000	4.586700
295.000000	4.614600
294.000000	4.627000
293.000000	4.622100
292.000000	4.603400
291.000000	4.632600
290.000000	4.614800
289.000000	4.610200
288.000000	4.654400
287.000000	4.602500
286.000000	4.643100
285.000000	4.697000
284.000000	4.684400
283.000000	4.703800
282.000000	4.698300
281.000000	4.676100
280.000000	4.698300
279.000000	4.715000
278.000000	4.729700
277.000000	4.731500
276.000000	4.756400
275.000000	4.737700
274.000000	4.761600
273.000000	4.746000
272.000000	4.759300
271.000000	4.790900
270.000000	4.773400
269.000000	4.788600
268.000000	4.843500
267.000000	4.850500
266.000000	4.815700
265.000000	4.889500
264.000000	4.898900
263.000000	4.934700
262.000000	4.929900
261.000000	4.942200
260.000000	4.966000
259.000000	4.974200
258.000000	5.013400
257.000000	5.060700
256.000000	5.041100
255.000000	5.072400
254.000000	5.072600
253.000000	5.039600
252.000000	5.075400
251.000000	5.071300
250.000000	5.076200
