PE UV       SUBTECH     SPECTRUM    ASCII       PEDS        4.00        
   -1
CICIMAUCR0113-4.Sample.ASC
24/04/18
17:16:39.00
24/04/18
17:16:39.00
Vinicio Soto Monge
C. kalinini
250,000000
1
Lambda 1050
1050L1511233
PerkinElmer UV WinLab 6.3.2.0749 / 2.02.05 Lambda 900 UV/VIS/NIR, Aug  7 2015 09:38:08

0
0
3350/servo 860,8/2
0
0
UV/VIS
1
1
1
DoubleDePol,CommonBeamDepol,RBeamAtt,SBeamAtt,60mm sphere, WB InGaAs Detector
0
0
0
0
Program
Program
3350/servo 860,8/2
3350/0,2 860,8/0,2
3350/0,2 860,8/0,2
0
15.00
 
 
 
0
 
860,8
319,2
860,8
Front
100
on
S:100 R:100
0
0
0
0
 
0
 
 
 
0
 
 
0
0
0
0
0
 
 
 
 
0
0


0
0
#HDR
-1
-1
#GR
nm
%R
1.0
0.0
2500,000000
-1,000000
2251
8
46,046400
2,843400
#DATA
2482.000000	5.379204
2481.000000	5.379524
2480.000000	5.401203
2479.000000	5.329012
2478.000000	5.308294
2477.000000	5.333284
2476.000000	5.336594
2475.000000	5.336274
2474.000000	5.318760
2473.000000	5.303061
2472.000000	5.315556
2471.000000	5.288645
2470.000000	5.337982
2469.000000	5.302741
2468.000000	5.333284
2467.000000	5.334245
2466.000000	5.353788
2465.000000	5.377389
2464.000000	5.376961
2463.000000	5.400456
2462.000000	5.428755
2461.000000	5.460045
2460.000000	5.484714
2459.000000	5.509276
2458.000000	5.554449
2457.000000	5.588302
2456.000000	5.601865
2455.000000	5.632834
2454.000000	5.682706
2453.000000	5.747956
2452.000000	5.779673
2451.000000	5.826661
2450.000000	5.878669
2449.000000	5.920424
2448.000000	5.986315
2447.000000	6.002013
2446.000000	6.045370
2445.000000	6.126639
2444.000000	6.177792
2443.000000	6.217732
2442.000000	6.277108
2441.000000	6.297078
2440.000000	6.338193
2439.000000	6.364250
2438.000000	6.433238
2437.000000	6.466130
2436.000000	6.519312
2435.000000	6.545156
2434.000000	6.594921
2433.000000	6.612221
2432.000000	6.631336
2431.000000	6.661345
2430.000000	6.708974
2429.000000	6.753186
2428.000000	6.762370
2427.000000	6.784369
2426.000000	6.815873
2425.000000	6.833707
2424.000000	6.849405
2423.000000	6.869375
2422.000000	6.885180
2421.000000	6.901733
2420.000000	6.933237
2419.000000	6.938790
2418.000000	6.964527
2417.000000	6.995710
2416.000000	7.024330
2415.000000	7.048785
2414.000000	7.076871
2413.000000	7.089259
2412.000000	7.111899
2411.000000	7.128452
2410.000000	7.157072
2409.000000	7.169780
2408.000000	7.165188
2407.000000	7.186333
2406.000000	7.214953
2405.000000	7.224457
2404.000000	7.235671
2403.000000	7.256175
2402.000000	7.276038
2401.000000	7.301027
2400.000000	7.301134
2399.000000	7.315017
2398.000000	7.341608
2397.000000	7.372044
2396.000000	7.386994
2395.000000	7.389130
2394.000000	7.407712
2393.000000	7.412838
2392.000000	7.419459
2391.000000	7.432915
2390.000000	7.447225
2389.000000	7.448293
2388.000000	7.445943
2387.000000	7.454914
2386.000000	7.466661
2385.000000	7.461535
2384.000000	7.466768
2383.000000	7.440604
2382.000000	7.434410
2381.000000	7.439643
2380.000000	7.428536
2379.000000	7.420420
2378.000000	7.395217
2377.000000	7.384218
2376.000000	7.393616
2375.000000	7.379626
2374.000000	7.355704
2373.000000	7.331249
2372.000000	7.312133
2371.000000	7.298037
2370.000000	7.273688
2369.000000	7.247418
2368.000000	7.221040
2367.000000	7.189537
2366.000000	7.162839
2365.000000	7.121083
2364.000000	7.095346
2363.000000	7.071318
2362.000000	7.020913
2361.000000	6.982040
2360.000000	6.963138
2359.000000	6.938256
2358.000000	6.922664
2357.000000	6.900131
2356.000000	6.872152
2355.000000	6.842784
2354.000000	6.823989
2353.000000	6.836483
2352.000000	6.854958
2351.000000	6.846415
2350.000000	6.867453
2349.000000	6.907500
2348.000000	6.926615
2347.000000	6.949682
2346.000000	6.984924
2345.000000	7.005855
2344.000000	7.023582
2343.000000	7.054125
2342.000000	7.086376
2341.000000	7.101647
2340.000000	7.100045
2339.000000	7.102929
2338.000000	7.119374
2337.000000	7.110084
2336.000000	7.097269
2335.000000	7.103676
2334.000000	7.086376
2333.000000	7.060959
2332.000000	7.049853
2331.000000	7.022728
2330.000000	7.005641
2329.000000	6.963245
2328.000000	6.940819
2327.000000	6.918820
2326.000000	6.864676
2325.000000	6.820465
2324.000000	6.766001
2323.000000	6.714100
2322.000000	6.671277
2321.000000	6.615638
2320.000000	6.555087
2319.000000	6.481187
2318.000000	6.394473
2317.000000	6.333174
2316.000000	6.255109
2315.000000	6.197015
2314.000000	6.124076
2313.000000	6.056156
2312.000000	5.989091
2311.000000	5.953530
2310.000000	5.927152
2309.000000	5.902056
2308.000000	5.892658
2307.000000	5.888387
2306.000000	5.901415
2305.000000	5.921385
2304.000000	5.939967
2303.000000	5.977665
2302.000000	6.028177
2301.000000	6.079010
2300.000000	6.139347
2299.000000	6.205451
2298.000000	6.242401
2297.000000	6.307651
2296.000000	6.358591
2295.000000	6.414015
2294.000000	6.441247
2293.000000	6.489517
2292.000000	6.518030
2291.000000	6.542913
2290.000000	6.544622
2289.000000	6.537894
2288.000000	6.544835
2287.000000	6.549107
2286.000000	6.550388
2285.000000	6.537253
2284.000000	6.517924
2283.000000	6.491867
2282.000000	6.466770
2281.000000	6.442956
2280.000000	6.416685
2279.000000	6.384221
2278.000000	6.362755
2277.000000	6.342999
2276.000000	6.326019
2275.000000	6.299641
2274.000000	6.325485
2273.000000	6.324417
2272.000000	6.336378
2271.000000	6.344814
2270.000000	6.395327
2269.000000	6.424801
2268.000000	6.485673
2267.000000	6.551136
2266.000000	6.635074
2265.000000	6.738021
2264.000000	6.831891
2263.000000	6.955876
2262.000000	7.110404
2261.000000	7.254252
2260.000000	7.388917
2259.000000	7.576550
2258.000000	7.741009
2257.000000	7.927681
2256.000000	8.102178
2255.000000	8.265570
2254.000000	8.436543
2253.000000	8.604526
2252.000000	8.780306
2251.000000	8.926610
2250.000000	9.057537
2249.000000	9.197647
2248.000000	9.327933
2247.000000	9.464947
2246.000000	9.575583
2245.000000	9.663366
2244.000000	9.771653
2243.000000	9.838504
2242.000000	9.943053
2241.000000	10.036283
2240.000000	10.101746
2239.000000	10.147026
2238.000000	10.200101
2237.000000	10.281369
2236.000000	10.321416
2235.000000	10.363279
2234.000000	10.386986
2233.000000	10.410694
2232.000000	10.420733
2231.000000	10.451275
2230.000000	10.434402
2229.000000	10.421053
2228.000000	10.439955
2227.000000	10.432586
2226.000000	10.421160
2225.000000	10.405675
2224.000000	10.401297
2223.000000	10.388695
2222.000000	10.366376
2221.000000	10.339785
2220.000000	10.283826
2219.000000	10.227119
2218.000000	10.207363
2217.000000	10.160161
2216.000000	10.125240
2215.000000	10.089038
2214.000000	10.064903
2213.000000	10.036496
2212.000000	10.002430
2211.000000	9.978935
2210.000000	9.958325
2209.000000	9.946898
2208.000000	9.923083
2207.000000	9.920200
2206.000000	9.877910
2205.000000	9.903327
2204.000000	9.891259
2203.000000	9.851960
2202.000000	9.842135
2201.000000	9.851747
2200.000000	9.842349
2199.000000	9.833592
2198.000000	9.831670
2197.000000	9.813408
2196.000000	9.822913
2195.000000	9.778594
2194.000000	9.771119
2193.000000	9.769944
2192.000000	9.737907
2191.000000	9.726907
2190.000000	9.703947
2189.000000	9.699675
2188.000000	9.681521
2187.000000	9.662191
2186.000000	9.661978
2185.000000	9.658454
2184.000000	9.644571
2183.000000	9.638056
2182.000000	9.638377
2181.000000	9.599611
2180.000000	9.587544
2179.000000	9.573661
2178.000000	9.566186
2177.000000	9.554866
2176.000000	9.537565
2175.000000	9.545041
2174.000000	9.528808
2173.000000	9.537993
2172.000000	9.533614
2171.000000	9.539915
2170.000000	9.559885
2169.000000	9.527420
2168.000000	9.548031
2167.000000	9.568001
2166.000000	9.599932
2165.000000	9.573981
2164.000000	9.610184
2163.000000	9.637950
2162.000000	9.639658
2161.000000	9.669026
2160.000000	9.704481
2159.000000	9.733955
2158.000000	9.801341
2157.000000	9.832097
2156.000000	9.856979
2155.000000	9.897453
2154.000000	9.970179
2153.000000	10.008837
2152.000000	10.050699
2151.000000	10.118939
2150.000000	10.191878
2149.000000	10.227333
2148.000000	10.272719
2147.000000	10.344377
2146.000000	10.365735
2145.000000	10.424470
2144.000000	10.506166
2143.000000	10.532757
2142.000000	10.550805
2141.000000	10.606550
2140.000000	10.666247
2139.000000	10.720710
2138.000000	10.768340
2137.000000	10.823337
2136.000000	10.855054
2135.000000	10.898412
2134.000000	10.946895
2133.000000	10.993670
2132.000000	11.038843
2131.000000	11.076006
2130.000000	11.107083
2129.000000	11.156207
2128.000000	11.181196
2127.000000	11.214195
2126.000000	11.243029
2125.000000	11.267911
2124.000000	11.289056
2123.000000	11.308492
2122.000000	11.318210
2121.000000	11.323229
2120.000000	11.353451
2119.000000	11.369043
2118.000000	11.378654
2117.000000	11.382605
2116.000000	11.389974
2115.000000	11.409730
2114.000000	11.436642
2113.000000	11.438351
2112.000000	11.416245
2111.000000	11.396061
2110.000000	11.391896
2109.000000	11.408663
2108.000000	11.405672
2107.000000	11.390828
2106.000000	11.374810
2105.000000	11.382178
2104.000000	11.393925
2103.000000	11.388265
2102.000000	11.375557
2101.000000	11.374489
2100.000000	11.375771
2099.000000	11.358791
2098.000000	11.354839
2097.000000	11.350247
2096.000000	11.345015
2095.000000	11.371606
2094.000000	11.373848
2093.000000	11.346189
2092.000000	11.352063
2091.000000	11.340636
2090.000000	11.346296
2089.000000	11.374382
2088.000000	11.362635
2087.000000	11.348112
2086.000000	11.344694
2085.000000	11.346723
2084.000000	11.337966
2083.000000	11.320987
2082.000000	11.303793
2081.000000	11.304220
2080.000000	11.294182
2079.000000	11.279445
2078.000000	11.269193
2077.000000	11.222845
2076.000000	11.166139
2075.000000	11.144780
2074.000000	11.119257
2073.000000	11.074298
2072.000000	11.039377
2071.000000	10.985233
2070.000000	10.945507
2069.000000	10.916032
2068.000000	10.875879
2067.000000	10.828356
2066.000000	10.796746
2065.000000	10.746768
2064.000000	10.697643
2063.000000	10.669130
2062.000000	10.640190
2061.000000	10.618297
2060.000000	10.587541
2059.000000	10.564047
2058.000000	10.566824
2057.000000	10.560950
2056.000000	10.547815
2055.000000	10.563193
2054.000000	10.612744
2053.000000	10.660907
2052.000000	10.701488
2051.000000	10.759689
2050.000000	10.834871
2049.000000	10.941022
2048.000000	11.032542
2047.000000	11.123208
2046.000000	11.238757
2045.000000	11.345442
2044.000000	11.470281
2043.000000	11.605159
2042.000000	11.737794
2041.000000	11.867867
2040.000000	11.979037
2039.000000	12.110391
2038.000000	12.228075
2037.000000	12.322799
2036.000000	12.428843
2035.000000	12.533606
2034.000000	12.624806
2033.000000	12.706075
2032.000000	12.822798
2031.000000	12.928095
2030.000000	12.988539
2029.000000	13.075147
2028.000000	13.152464
2027.000000	13.223801
2026.000000	13.310409
2025.000000	13.370746
2024.000000	13.452655
2023.000000	13.526021
2022.000000	13.575573
2021.000000	13.619784
2020.000000	13.667947
2019.000000	13.738110
2018.000000	13.807951
2017.000000	13.833368
2016.000000	13.870745
2015.000000	13.918160
2014.000000	13.970809
2013.000000	14.024632
2012.000000	14.023137
2011.000000	14.055067
2010.000000	14.067562
2009.000000	14.082299
2008.000000	14.102376
2007.000000	14.106861
2006.000000	14.088600
2005.000000	14.100454
2004.000000	14.112414
2003.000000	14.092978
2002.000000	14.107395
2001.000000	14.110065
2000.000000	14.088493
1999.000000	14.085183
1998.000000	14.055494
1997.000000	14.036592
1996.000000	14.015981
1995.000000	13.986721
1994.000000	13.925209
1993.000000	13.915597
1992.000000	13.856648
1991.000000	13.803680
1990.000000	13.771108
1989.000000	13.713013
1988.000000	13.642958
1987.000000	13.618716
1986.000000	13.567350
1985.000000	13.512565
1984.000000	13.495052
1983.000000	13.414531
1982.000000	13.344369
1981.000000	13.309768
1980.000000	13.217820
1979.000000	13.155241
1978.000000	13.118931
1977.000000	13.060089
1976.000000	12.994199
1975.000000	12.917415
1974.000000	12.896805
1973.000000	12.816390
1972.000000	12.747296
1971.000000	12.702017
1970.000000	12.671688
1969.000000	12.597788
1968.000000	12.537237
1967.000000	12.511927
1966.000000	12.441018
1965.000000	12.408446
1964.000000	12.337003
1963.000000	12.293966
1962.000000	12.251890
1961.000000	12.189523
1960.000000	12.123740
1959.000000	12.068528
1958.000000	12.016628
1957.000000	11.962057
1956.000000	11.895953
1955.000000	11.846615
1954.000000	11.803578
1953.000000	11.746338
1952.000000	11.686321
1951.000000	11.641575
1950.000000	11.577287
1949.000000	11.527094
1948.000000	11.483417
1947.000000	11.419021
1946.000000	11.386236
1945.000000	11.396702
1944.000000	11.358791
1943.000000	11.327074
1942.000000	11.255523
1941.000000	11.233097
1940.000000	11.200953
1939.000000	11.200846
1938.000000	11.253387
1937.000000	11.298774
1936.000000	11.306142
1935.000000	11.310735
1934.000000	11.317035
1933.000000	11.338500
1932.000000	11.380576
1931.000000	11.420944
1930.000000	11.421050
1929.000000	11.516522
1928.000000	11.620644
1927.000000	11.746017
1926.000000	11.852596
1925.000000	11.969746
1924.000000	12.029015
1923.000000	12.068849
1922.000000	12.187601
1921.000000	12.382282
1920.000000	12.626515
1919.000000	12.834652
1918.000000	12.999218
1917.000000	13.092874
1916.000000	13.160367
1915.000000	13.216005
1914.000000	13.428520
1913.000000	13.781253
1912.000000	14.092658
1911.000000	14.340415
1910.000000	14.534562
1909.000000	14.600773
1908.000000	14.697846
1907.000000	14.899256
1906.000000	15.193787
1905.000000	15.603120
1904.000000	15.975075
1903.000000	16.260636
1902.000000	16.493228
1901.000000	16.689832
1900.000000	17.051322
1899.000000	17.543097
1898.000000	17.948051
1897.000000	18.303134
1896.000000	18.512659
1895.000000	18.627887
1894.000000	18.831966
1893.000000	19.109945
1892.000000	19.463532
1891.000000	19.901592
1890.000000	20.280916
1889.000000	20.594670
1888.000000	20.895075
1887.000000	21.131618
1886.000000	21.397530
1885.000000	21.713953
1884.000000	22.151265
1883.000000	22.559103
1882.000000	22.900943
1881.000000	23.229434
1880.000000	23.451240
1879.000000	23.642718
1878.000000	23.862602
1877.000000	24.055041
1876.000000	24.224305
1875.000000	24.395599
1874.000000	24.573087
1873.000000	24.800767
1872.000000	25.022039
1871.000000	25.245661
1870.000000	25.607151
1869.000000	25.888227
1868.000000	26.104373
1867.000000	26.275133
1866.000000	26.310801
1865.000000	26.318063
1864.000000	26.299161
1863.000000	26.214369
1862.000000	26.164604
1861.000000	26.171225
1860.000000	26.218213
1859.000000	26.303967
1858.000000	26.405846
1857.000000	26.453048
1856.000000	26.392817
1855.000000	26.365372
1854.000000	26.455504
1853.000000	26.495551
1852.000000	26.457320
1851.000000	26.345936
1850.000000	26.113557
1849.000000	25.948884
1848.000000	26.108004
1847.000000	26.434253
1846.000000	26.557597
1845.000000	26.410652
1844.000000	26.119537
1843.000000	25.870286
1842.000000	25.886625
1841.000000	26.057278
1840.000000	26.115373
1839.000000	26.039871
1838.000000	25.908944
1837.000000	25.909478
1836.000000	26.034318
1835.000000	26.147624
1834.000000	26.093587
1833.000000	25.895702
1832.000000	25.752388
1831.000000	25.690876
1830.000000	25.723234
1829.000000	25.719496
1828.000000	25.651897
1827.000000	25.622102
1826.000000	25.673148
1825.000000	25.682226
1824.000000	25.589958
1823.000000	25.391859
1822.000000	25.313047
1821.000000	25.423362
1820.000000	25.579812
1819.000000	25.625199
1818.000000	25.536455
1817.000000	25.425712
1816.000000	25.423683
1815.000000	25.478787
1814.000000	25.478360
1813.000000	25.437886
1812.000000	25.393568
1811.000000	25.425819
1810.000000	25.436071
1809.000000	25.384917
1808.000000	25.314969
1807.000000	25.283786
1806.000000	25.300979
1805.000000	25.305571
1804.000000	25.267126
1803.000000	25.182440
1802.000000	25.145277
1801.000000	25.171868
1800.000000	25.198139
1799.000000	25.162791
1798.000000	25.104376
1797.000000	25.066358
1796.000000	25.045854
1795.000000	25.032398
1794.000000	25.011681
1793.000000	24.986798
1792.000000	24.958285
1791.000000	24.930198
1790.000000	24.924005
1789.000000	24.874453
1788.000000	24.816999
1787.000000	24.804611
1786.000000	24.771292
1785.000000	24.734770
1784.000000	24.689490
1783.000000	24.648482
1782.000000	24.613882
1781.000000	24.566466
1780.000000	24.530050
1779.000000	24.471315
1778.000000	24.424540
1777.000000	24.360785
1776.000000	24.294468
1775.000000	24.225587
1774.000000	24.130436
1773.000000	24.051089
1772.000000	23.955618
1771.000000	23.860039
1770.000000	23.781120
1769.000000	23.704550
1768.000000	23.623602
1767.000000	23.522898
1766.000000	23.456473
1765.000000	23.415038
1764.000000	23.385991
1763.000000	23.366982
1762.000000	23.384068
1761.000000	23.398379
1760.000000	23.398272
1759.000000	23.424329
1758.000000	23.456900
1757.000000	23.496413
1756.000000	23.525674
1755.000000	23.538276
1754.000000	23.533043
1753.000000	23.519374
1752.000000	23.498122
1751.000000	23.488618
1750.000000	23.428707
1749.000000	23.403077
1748.000000	23.319780
1747.000000	23.238725
1746.000000	23.164718
1745.000000	23.061558
1744.000000	22.940135
1743.000000	22.806646
1742.000000	22.683729
1741.000000	22.505066
1740.000000	22.349898
1739.000000	22.167177
1738.000000	22.020018
1737.000000	21.869122
1736.000000	21.766602
1735.000000	21.671343
1734.000000	21.616666
1733.000000	21.615812
1732.000000	21.624462
1731.000000	21.653723
1730.000000	21.694731
1729.000000	21.738088
1728.000000	21.778242
1727.000000	21.824696
1726.000000	21.841142
1725.000000	21.879267
1724.000000	21.879587
1723.000000	21.917819
1722.000000	21.939391
1721.000000	21.989689
1720.000000	22.027494
1719.000000	22.106199
1718.000000	22.201564
1717.000000	22.294259
1716.000000	22.380974
1715.000000	22.481145
1714.000000	22.581209
1713.000000	22.694301
1712.000000	22.736484
1711.000000	22.816898
1710.000000	22.840178
1709.000000	22.866556
1708.000000	22.891118
1707.000000	22.909807
1706.000000	22.892827
1705.000000	22.896564
1704.000000	22.868158
1703.000000	22.825868
1702.000000	22.744600
1701.000000	22.632362
1700.000000	22.565617
1699.000000	22.454233
1698.000000	22.370188
1697.000000	22.276318
1696.000000	22.227087
1695.000000	22.203380
1694.000000	22.236912
1693.000000	22.276212
1692.000000	22.348189
1691.000000	22.434904
1690.000000	22.503037
1689.000000	22.560171
1688.000000	22.645711
1687.000000	22.668671
1686.000000	22.714378
1685.000000	22.802481
1684.000000	22.914826
1683.000000	23.132681
1682.000000	23.382894
1681.000000	23.720996
1680.000000	24.100214
1679.000000	24.502284
1678.000000	24.856512
1677.000000	25.212983
1676.000000	25.537523
1675.000000	25.816036
1674.000000	26.081733
1673.000000	26.311335
1672.000000	26.509754
1671.000000	26.710309
1670.000000	26.884380
1669.000000	27.043179
1668.000000	27.210628
1667.000000	27.420474
1666.000000	27.540828
1665.000000	27.652105
1664.000000	27.779294
1663.000000	27.857572
1662.000000	27.951015
1661.000000	28.017653
1660.000000	28.120173
1659.000000	28.193752
1658.000000	28.250993
1657.000000	28.313573
1656.000000	28.363124
1655.000000	28.387366
1654.000000	28.374978
1653.000000	28.382667
1652.000000	28.416306
1651.000000	28.437985
1650.000000	28.429976
1649.000000	28.402317
1648.000000	28.380638
1647.000000	28.352552
1646.000000	28.328844
1645.000000	28.320301
1644.000000	28.301185
1643.000000	28.283564
1642.000000	28.279293
1641.000000	28.248750
1640.000000	28.245119
1639.000000	28.198985
1638.000000	28.147832
1637.000000	28.127435
1636.000000	28.091873
1635.000000	28.072223
1634.000000	28.016265
1633.000000	27.969597
1632.000000	27.923356
1631.000000	27.868892
1630.000000	27.815603
1629.000000	27.788051
1628.000000	27.757295
1627.000000	27.705180
1626.000000	27.654668
1625.000000	27.577671
1624.000000	27.509965
1623.000000	27.444822
1622.000000	27.420367
1621.000000	27.374660
1620.000000	27.342623
1619.000000	27.277266
1618.000000	27.223550
1617.000000	27.193435
1616.000000	27.165776
1615.000000	27.112380
1614.000000	27.074362
1613.000000	27.035383
1612.000000	26.980812
1611.000000	26.922077
1610.000000	26.867400
1609.000000	26.810159
1608.000000	26.751317
1607.000000	26.690019
1606.000000	26.662253
1605.000000	26.622206
1604.000000	26.557597
1603.000000	26.508366
1602.000000	26.455931
1601.000000	26.398371
1600.000000	26.325859
1599.000000	26.257192
1598.000000	26.197923
1597.000000	26.164070
1596.000000	26.112382
1595.000000	26.042220
1594.000000	25.996300
1593.000000	25.933400
1592.000000	25.890896
1591.000000	25.860461
1590.000000	25.815715
1589.000000	25.767979
1588.000000	25.742242
1587.000000	25.718535
1586.000000	25.702516
1585.000000	25.690342
1584.000000	25.649654
1583.000000	25.593161
1582.000000	25.551619
1581.000000	25.528339
1580.000000	25.513388
1579.000000	25.506553
1578.000000	25.494165
1577.000000	25.479321
1576.000000	25.462128
1575.000000	25.455507
1574.000000	25.490962
1573.000000	25.494913
1572.000000	25.483700
1571.000000	25.517553
1570.000000	25.554289
1569.000000	25.586113
1568.000000	25.620607
1567.000000	25.634810
1566.000000	25.657129
1565.000000	25.690021
1564.000000	25.716078
1563.000000	25.735194
1562.000000	25.779726
1561.000000	25.797133
1560.000000	25.788804
1559.000000	25.798201
1558.000000	25.801832
1557.000000	25.790726
1556.000000	25.795532
1555.000000	25.800871
1554.000000	25.781969
1553.000000	25.759650
1552.000000	25.718748
1551.000000	25.700594
1550.000000	25.687672
1549.000000	25.622636
1548.000000	25.579492
1547.000000	25.565289
1546.000000	25.550765
1545.000000	25.535067
1544.000000	25.519902
1543.000000	25.505379
1542.000000	25.495874
1541.000000	25.484768
1540.000000	25.491496
1539.000000	25.491602
1538.000000	25.474516
1537.000000	25.487010
1536.000000	25.488719
1535.000000	25.460099
1534.000000	25.434148
1533.000000	25.421013
1532.000000	25.417062
1531.000000	25.426993
1530.000000	25.424964
1529.000000	25.399548
1528.000000	25.368578
1527.000000	25.353734
1526.000000	25.327250
1525.000000	25.299271
1524.000000	25.270757
1523.000000	25.258690
1522.000000	25.235302
1521.000000	25.223448
1520.000000	25.196964
1519.000000	25.170480
1518.000000	25.138763
1517.000000	25.107579
1516.000000	25.081949
1515.000000	25.039233
1514.000000	25.012855
1513.000000	24.995021
1512.000000	24.962343
1511.000000	24.922723
1510.000000	24.878191
1509.000000	24.836649
1508.000000	24.813048
1507.000000	24.780370
1506.000000	24.743740
1505.000000	24.711703
1504.000000	24.680520
1503.000000	24.666530
1502.000000	24.629260
1501.000000	24.596474
1500.000000	24.584193
1499.000000	24.566786
1498.000000	24.563262
1497.000000	24.541156
1496.000000	24.533574
1495.000000	24.531759
1494.000000	24.537205
1493.000000	24.543079
1492.000000	24.575864
1491.000000	24.569563
1490.000000	24.565291
1489.000000	24.579815
1488.000000	24.580029
1487.000000	24.622104
1486.000000	24.647734
1485.000000	24.673792
1484.000000	24.666103
1483.000000	24.689276
1482.000000	24.723343
1481.000000	24.751963
1480.000000	24.782612
1479.000000	24.813048
1478.000000	24.846687
1477.000000	24.869968
1476.000000	24.917063
1475.000000	24.948673
1474.000000	24.998332
1473.000000	25.026204
1472.000000	25.091881
1471.000000	25.153500
1470.000000	25.202944
1469.000000	25.252923
1468.000000	25.281757
1467.000000	25.370073
1466.000000	25.405635
1465.000000	25.462341
1464.000000	25.495554
1463.000000	25.569133
1462.000000	25.629043
1461.000000	25.675177
1460.000000	25.752815
1459.000000	25.849675
1458.000000	25.921439
1457.000000	26.005698
1456.000000	26.062297
1455.000000	26.180622
1454.000000	26.257512
1453.000000	26.359926
1452.000000	26.429767
1451.000000	26.537947
1450.000000	26.672078
1449.000000	26.793820
1448.000000	26.816140
1447.000000	26.902748
1446.000000	27.023209
1445.000000	27.206356
1444.000000	27.314002
1443.000000	27.315070
1442.000000	27.445356
1441.000000	27.582904
1440.000000	27.708811
1439.000000	27.822438
1438.000000	27.931899
1437.000000	28.071689
1436.000000	28.196743
1435.000000	28.300864
1434.000000	28.411928
1433.000000	28.536981
1432.000000	28.692897
1431.000000	28.842191
1430.000000	28.971516
1429.000000	29.083007
1428.000000	29.286979
1427.000000	29.468311
1426.000000	29.629246
1425.000000	29.822646
1424.000000	29.985076
1423.000000	30.244793
1422.000000	30.444280
1421.000000	30.589731
1420.000000	30.808867
1419.000000	31.072536
1418.000000	31.357242
1417.000000	31.486888
1416.000000	31.612154
1415.000000	31.801923
1414.000000	32.167471
1413.000000	32.450576
1412.000000	32.597521
1411.000000	32.707410
1410.000000	32.992330
1409.000000	33.351043
1408.000000	33.636391
1407.000000	33.916185
1406.000000	34.152088
1405.000000	34.448648
1404.000000	34.803731
1403.000000	35.090253
1402.000000	35.082670
1401.000000	35.356271
1400.000000	35.951100
1399.000000	36.237516
1398.000000	36.134675
1397.000000	36.085551
1396.000000	36.384995
1395.000000	36.785998
1394.000000	36.930701
1393.000000	36.878800
1392.000000	37.075830
1391.000000	37.342596
1390.000000	37.397167
1389.000000	37.396633
1388.000000	37.721386
1387.000000	38.021898
1386.000000	38.140757
1385.000000	38.265276
1384.000000	38.476617
1383.000000	38.664143
1382.000000	39.004595
1381.000000	39.300728
1380.000000	39.385521
1379.000000	39.427597
1378.000000	39.446392
1377.000000	39.480138
1376.000000	39.544320
1375.000000	39.637763
1374.000000	39.703119
1373.000000	39.793145
1372.000000	39.934003
1371.000000	40.164780
1370.000000	40.370781
1369.000000	40.420973
1368.000000	40.609247
1367.000000	40.828490
1366.000000	40.859139
1365.000000	40.942330
1364.000000	41.107857
1363.000000	41.069199
1362.000000	41.105828
1361.000000	41.380710
1360.000000	41.508646
1359.000000	41.464114
1358.000000	41.473405
1357.000000	41.542072
1356.000000	41.619923
1355.000000	41.870991
1354.000000	42.146620
1353.000000	42.346000
1352.000000	42.558836
1351.000000	42.802214
1350.000000	43.033845
1349.000000	43.233439
1348.000000	43.440081
1347.000000	43.676624
1346.000000	43.832967
1345.000000	43.965603
1344.000000	44.185594
1343.000000	44.354218
1342.000000	44.474358
1341.000000	44.592684
1340.000000	44.728736
1339.000000	44.876536
1338.000000	45.010987
1337.000000	45.131661
1336.000000	45.239521
1335.000000	45.357953
1334.000000	45.453852
1333.000000	45.550819
1332.000000	45.636786
1331.000000	45.712608
1330.000000	45.800391
1329.000000	45.893299
1328.000000	45.975209
1327.000000	46.037468
1326.000000	46.072603
1325.000000	46.116174
1324.000000	46.166045
1323.000000	46.229159
1322.000000	46.291205
1321.000000	46.333495
1320.000000	46.361688
1319.000000	46.393191
1318.000000	46.425870
1317.000000	46.481615
1316.000000	46.548680
1315.000000	46.587018
1314.000000	46.600154
1313.000000	46.617561
1312.000000	46.645647
1311.000000	46.679927
1310.000000	46.692101
1309.000000	46.685160
1308.000000	46.689218
1307.000000	46.713139
1306.000000	46.715702
1305.000000	46.709935
1304.000000	46.711537
1303.000000	46.707159
1302.000000	46.705877
1301.000000	46.686655
1300.000000	46.671384
1299.000000	46.650666
1298.000000	46.625570
1297.000000	46.618949
1296.000000	46.612969
1295.000000	46.585737
1294.000000	46.541632
1293.000000	46.508633
1292.000000	46.503507
1291.000000	46.493148
1290.000000	46.460150
1289.000000	46.434627
1288.000000	46.399385
1287.000000	46.352717
1286.000000	46.307010
1285.000000	46.272090
1284.000000	46.230548
1283.000000	46.194238
1282.000000	46.170424
1281.000000	46.141270
1280.000000	46.118310
1279.000000	46.073457
1278.000000	46.002334
1277.000000	45.952996
1276.000000	45.935162
1275.000000	45.911134
1274.000000	45.880057
1273.000000	45.873757
1272.000000	45.880057
1271.000000	45.877494
1270.000000	45.862010
1269.000000	45.844282
1268.000000	45.835739
1267.000000	45.799857
1266.000000	45.778498
1265.000000	45.781275
1264.000000	45.773052
1263.000000	45.757460
1262.000000	45.733005
1261.000000	45.700647
1260.000000	45.681745
1259.000000	45.674697
1258.000000	45.624932
1257.000000	45.582322
1256.000000	45.560109
1255.000000	45.533625
1254.000000	45.502762
1253.000000	45.462181
1252.000000	45.442425
1251.000000	45.415620
1250.000000	45.393087
1249.000000	45.335954
1248.000000	45.277539
1247.000000	45.237812
1246.000000	45.191144
1245.000000	45.144049
1244.000000	45.074741
1243.000000	45.030423
1242.000000	45.003084
1241.000000	44.984395
1240.000000	44.939116
1239.000000	44.867245
1238.000000	44.801568
1237.000000	44.768569
1236.000000	44.719125
1235.000000	44.648429
1234.000000	44.571005
1233.000000	44.525512
1232.000000	44.468485
1231.000000	44.361052
1230.000000	44.283842
1229.000000	44.219126
1228.000000	44.154410
1227.000000	44.066628
1226.000000	44.002553
1225.000000	43.961011
1224.000000	43.881451
1223.000000	43.801571
1222.000000	43.710157
1221.000000	43.623869
1220.000000	43.545911
1219.000000	43.473720
1218.000000	43.398005
1217.000000	43.326668
1216.000000	43.258108
1215.000000	43.194780
1214.000000	43.108920
1213.000000	43.031282
1212.000000	42.978954
1211.000000	42.878784
1210.000000	42.791215
1209.000000	42.735042
1208.000000	42.656871
1207.000000	42.553817
1206.000000	42.466995
1205.000000	42.425560
1204.000000	42.401959
1203.000000	42.375047
1202.000000	42.318021
1201.000000	42.241985
1200.000000	42.191045
1199.000000	42.149824
1198.000000	42.080089
1197.000000	41.991558
1196.000000	41.887437
1195.000000	41.755762
1194.000000	41.623448
1193.000000	41.457280
1192.000000	41.273491
1191.000000	41.069412
1190.000000	40.888080
1189.000000	40.710485
1188.000000	40.585860
1187.000000	40.451302
1186.000000	40.417663
1185.000000	40.448205
1184.000000	40.519328
1183.000000	40.617256
1182.000000	40.780220
1181.000000	40.943398
1180.000000	41.123983
1179.000000	41.273705
1178.000000	41.427805
1177.000000	41.571547
1176.000000	41.687629
1175.000000	41.774344
1174.000000	41.891922
1173.000000	42.006403
1172.000000	42.101981
1171.000000	42.204287
1170.000000	42.314283
1169.000000	42.456102
1168.000000	42.620028
1167.000000	42.759711
1166.000000	42.867891
1165.000000	43.000526
1164.000000	43.153452
1163.000000	43.304135
1162.000000	43.429508
1161.000000	43.553707
1160.000000	43.686876
1159.000000	43.825278
1158.000000	43.917333
1157.000000	43.993475
1156.000000	44.106034
1155.000000	44.198729
1154.000000	44.210369
1153.000000	44.255115
1152.000000	44.273590
1151.000000	44.264726
1150.000000	44.240698
1149.000000	44.225961
1148.000000	44.215282
1147.000000	44.217524
1146.000000	44.247212
1145.000000	44.319404
1144.000000	44.384333
1143.000000	44.426836
1142.000000	44.502231
1141.000000	44.584674
1140.000000	44.673952
1139.000000	44.757356
1138.000000	44.852828
1137.000000	44.905583
1136.000000	44.998065
1135.000000	45.143301
1134.000000	45.312459
1133.000000	45.419465
1132.000000	45.428862
1131.000000	45.426940
1130.000000	45.492190
1129.000000	45.580507
1128.000000	45.641378
1127.000000	45.627815
1126.000000	45.650348
1125.000000	45.653766
1124.000000	45.634650
1123.000000	45.640310
1122.000000	45.666474
1121.000000	45.662736
1120.000000	45.644261
1119.000000	45.597807
1118.000000	45.582002
1117.000000	45.569827
1116.000000	45.543343
1115.000000	45.492831
1114.000000	45.464958
1113.000000	45.419785
1112.000000	45.372583
1111.000000	45.309469
1110.000000	45.267927
1109.000000	45.224677
1108.000000	45.188902
1107.000000	45.143408
1106.000000	45.099837
1105.000000	45.034374
1104.000000	44.970619
1103.000000	44.953853
1102.000000	44.909748
1101.000000	44.855391
1100.000000	44.801995
1099.000000	44.759172
1098.000000	44.733115
1097.000000	44.674913
1096.000000	44.609877
1095.000000	44.548365
1094.000000	44.505328
1093.000000	44.449049
1092.000000	44.367460
1091.000000	44.333714
1090.000000	44.265153
1089.000000	44.207593
1088.000000	44.128140
1087.000000	44.067589
1086.000000	43.994223
1085.000000	43.934420
1084.000000	43.861694
1083.000000	43.801571
1082.000000	43.754262
1081.000000	43.694352
1080.000000	43.652490
1079.000000	43.575600
1078.000000	43.505758
1077.000000	43.425984
1076.000000	43.351017
1075.000000	43.306698
1074.000000	43.263234
1073.000000	43.196382
1072.000000	43.149501
1071.000000	43.090979
1070.000000	43.029040
1069.000000	42.951402
1068.000000	42.887861
1067.000000	42.822184
1066.000000	42.765691
1065.000000	42.713470
1064.000000	42.654308
1063.000000	42.586388
1062.000000	42.518789
1061.000000	42.463044
1060.000000	42.392882
1059.000000	42.328379
1058.000000	42.258644
1057.000000	42.167231
1056.000000	42.100272
1055.000000	42.031605
1054.000000	41.953754
1053.000000	41.882097
1052.000000	41.806595
1051.000000	41.720201
1050.000000	41.648971
1049.000000	41.579663
1048.000000	41.494657
1047.000000	41.418621
1046.000000	41.365866
1045.000000	41.303286
1044.000000	41.219775
1043.000000	41.151001
1042.000000	41.077528
1041.000000	40.986755
1040.000000	40.909865
1039.000000	40.832228
1038.000000	40.736756
1037.000000	40.652391
1036.000000	40.574006
1035.000000	40.507581
1034.000000	40.440302
1033.000000	40.354442
1032.000000	40.262281
1031.000000	40.174925
1030.000000	40.083725
1029.000000	40.015485
1028.000000	39.947459
1027.000000	39.862453
1026.000000	39.785990
1025.000000	39.703333
1024.000000	39.606687
1023.000000	39.513351
1022.000000	39.407413
1021.000000	39.324543
1020.000000	39.257798
1019.000000	39.192655
1018.000000	39.126338
1017.000000	39.041225
1016.000000	38.940413
1015.000000	38.873455
1014.000000	38.824544
1013.000000	38.766129
1012.000000	38.704617
1011.000000	38.625698
1010.000000	38.519120
1009.000000	38.450133
1008.000000	38.403678
1007.000000	38.350603
1006.000000	38.277237
1005.000000	38.201628
1004.000000	38.150582
1003.000000	38.077109
1002.000000	37.991142
1001.000000	37.919378
1000.000000	37.826149
999.000000	37.753424
998.000000	37.652719
997.000000	37.561092
996.000000	37.499580
995.000000	37.418739
994.000000	37.331276
993.000000	37.237086
992.000000	37.153895
991.000000	37.060239
990.000000	36.971495
989.000000	36.898877
988.000000	36.825297
987.000000	36.722991
986.000000	36.633820
985.000000	36.553619
984.000000	36.458147
983.000000	36.375811
982.000000	36.272009
981.000000	36.210925
980.000000	36.123783
979.000000	36.054261
978.000000	35.949926
977.000000	35.832134
976.000000	35.769448
975.000000	35.712528
974.000000	35.590785
973.000000	35.483353
972.000000	35.398240
971.000000	35.322204
970.000000	35.200675
969.000000	35.080428
968.000000	35.007062
967.000000	34.937754
966.000000	34.802769
965.000000	34.694483
964.000000	34.564731
963.000000	34.494035
962.000000	34.440532
961.000000	34.288888
960.000000	34.178252
959.000000	34.067188
958.000000	34.007812
957.000000	33.940213
956.000000	33.806830
955.000000	33.680923
954.000000	33.602110
953.000000	33.514007
952.000000	33.385751
951.000000	33.278745
950.000000	33.204952
949.000000	33.090899
948.000000	33.028853
947.000000	32.880733
946.000000	32.743826
945.000000	32.626034
944.000000	32.560037
943.000000	32.439149
942.000000	32.354036
941.000000	32.225138
940.000000	32.091862
939.000000	31.958159
938.000000	31.842397
937.000000	31.775652
936.000000	31.638425
935.000000	31.515508
934.000000	31.427405
933.000000	31.368562
932.000000	31.241480
931.000000	31.146756
930.000000	31.048081
929.000000	30.934347
928.000000	30.805984
927.000000	30.678368
926.000000	30.611089
925.000000	30.490308
924.000000	30.375720
923.000000	30.258356
922.000000	30.165020
921.000000	30.141953
920.000000	30.050005
919.000000	29.914700
918.000000	29.841441
917.000000	29.767221
916.000000	29.687875
915.000000	29.619635
914.000000	29.502805
913.000000	29.429546
912.000000	29.363762
911.000000	29.293173
910.000000	29.193750
909.000000	29.158402
908.000000	29.112268
907.000000	29.085997
906.000000	29.023951
905.000000	29.004194
904.000000	28.949517
903.000000	28.876258
902.000000	28.850842
901.000000	28.870384
900.000000	28.839522
899.000000	28.819338
898.000000	28.812076
897.000000	28.789650
896.000000	28.817202
895.000000	28.816989
894.000000	28.840056
893.000000	28.873588
892.000000	28.876578
891.000000	28.909791
890.000000	28.943216
889.000000	28.940440
888.000000	28.948022
887.000000	28.998535
886.000000	29.030358
885.000000	29.088240
884.000000	29.138325
883.000000	29.179974
882.000000	29.256116
881.000000	29.332792
880.000000	29.401887
879.000000	29.458913
878.000000	29.533988
877.000000	29.631489
876.000000	29.713078
875.000000	29.797336
874.000000	29.902740
873.000000	29.978562
872.000000	30.077771
871.000000	30.208378
870.000000	30.309402
869.000000	30.397933
868.000000	30.495861
867.000000	30.613332
866.000000	30.738491
865.000000	30.832789
864.000000	30.946628
863.000000	31.070507
862.000000	31.172813
861.000000	31.305128
860.000000	31.367174
859.000000	31.399212
858.000000	31.787933
857.000000	31.697200
856.000000	31.789100
855.000000	31.877500
854.000000	32.185600
853.000000	32.452400
852.000000	32.382000
851.000000	32.584400
850.000000	32.862400
849.000000	33.064700
848.000000	32.993500
847.000000	33.253800
846.000000	33.480500
845.000000	33.474800
844.000000	33.641900
843.000000	33.680100
842.000000	33.916200
841.000000	34.100600
840.000000	34.259000
839.000000	34.137700
838.000000	34.491100
837.000000	34.568300
836.000000	34.840400
835.000000	34.816300
834.000000	35.005500
833.000000	35.172100
832.000000	35.245100
831.000000	35.462600
830.000000	35.690000
829.000000	35.722400
828.000000	35.865000
827.000000	35.903500
826.000000	36.057000
825.000000	36.194800
824.000000	36.228900
823.000000	36.313400
822.000000	36.526700
821.000000	36.577900
820.000000	36.645900
819.000000	36.845900
818.000000	37.017000
817.000000	37.113300
816.000000	37.274900
815.000000	37.441400
814.000000	37.635600
813.000000	37.787200
812.000000	37.813900
811.000000	37.930900
810.000000	38.086600
809.000000	38.356400
808.000000	38.453900
807.000000	38.584300
806.000000	38.806200
805.000000	38.974400
804.000000	39.054300
803.000000	39.197600
802.000000	39.416800
801.000000	39.627900
800.000000	39.788900
799.000000	39.945900
798.000000	40.101500
797.000000	40.345500
796.000000	40.561800
795.000000	40.669900
794.000000	40.841300
793.000000	41.080800
792.000000	41.242900
791.000000	41.467200
790.000000	41.575300
789.000000	41.708500
788.000000	41.948300
787.000000	42.131900
786.000000	42.291900
785.000000	42.465400
784.000000	42.599500
783.000000	42.687300
782.000000	42.858200
781.000000	42.994500
780.000000	43.179900
779.000000	43.383700
778.000000	43.514900
777.000000	43.635300
776.000000	43.738700
775.000000	43.805500
774.000000	43.931100
773.000000	44.097200
772.000000	44.222600
771.000000	44.323000
770.000000	44.440000
769.000000	44.585000
768.000000	44.686600
767.000000	44.709800
766.000000	44.756000
765.000000	44.827600
764.000000	44.916600
763.000000	45.017100
762.000000	45.080500
761.000000	45.195200
760.000000	45.296700
759.000000	45.338000
758.000000	45.397900
757.000000	45.416600
756.000000	45.480700
755.000000	45.567800
754.000000	45.611900
753.000000	45.603600
752.000000	45.699700
751.000000	45.811500
750.000000	45.804300
749.000000	45.812400
748.000000	45.866900
747.000000	45.898400
746.000000	45.921200
745.000000	45.957500
744.000000	45.995800
743.000000	45.985900
742.000000	46.004700
741.000000	46.039300
740.000000	46.032100
739.000000	46.046400
738.000000	46.001500
737.000000	45.979700
736.000000	46.018400
735.000000	46.007500
734.000000	45.943900
733.000000	45.856200
732.000000	45.809400
731.000000	45.773300
730.000000	45.735800
729.000000	45.701200
728.000000	45.622800
727.000000	45.587900
726.000000	45.545800
725.000000	45.437500
724.000000	45.304700
723.000000	45.193900
722.000000	45.114100
721.000000	45.025100
720.000000	44.955700
719.000000	44.892600
718.000000	44.774300
717.000000	44.641700
716.000000	44.556900
715.000000	44.454200
714.000000	44.314400
713.000000	44.190800
712.000000	44.081700
711.000000	43.934100
710.000000	43.774500
709.000000	43.683300
708.000000	43.604800
707.000000	43.490800
706.000000	43.299200
705.000000	43.156500
704.000000	43.031100
703.000000	42.874900
702.000000	42.727500
701.000000	42.586700
700.000000	42.456400
699.000000	42.329600
698.000000	42.141900
697.000000	41.949600
696.000000	41.747800
695.000000	41.558500
694.000000	41.373300
693.000000	41.181300
692.000000	40.992700
691.000000	40.765400
690.000000	40.524600
689.000000	40.297600
688.000000	40.089600
687.000000	39.968000
686.000000	39.746400
685.000000	39.507600
684.000000	39.251300
683.000000	38.978400
682.000000	38.730700
681.000000	38.492200
680.000000	38.228800
679.000000	37.957000
678.000000	37.715000
677.000000	37.467800
676.000000	37.186700
675.000000	36.954500
674.000000	36.740400
673.000000	36.533800
672.000000	36.315100
671.000000	36.099700
670.000000	35.890100
669.000000	35.673400
668.000000	35.509000
667.000000	35.304200
666.000000	35.121600
665.000000	34.948600
664.000000	34.795800
663.000000	34.636300
662.000000	34.510200
661.000000	34.382200
660.000000	34.264600
659.000000	34.162900
658.000000	34.073800
657.000000	33.995800
656.000000	33.941200
655.000000	33.879000
654.000000	33.834700
653.000000	33.829100
652.000000	33.803900
651.000000	33.787500
650.000000	33.733400
649.000000	33.679000
648.000000	33.639600
647.000000	33.574000
646.000000	33.537000
645.000000	33.493400
644.000000	33.449200
643.000000	33.398700
642.000000	33.344600
641.000000	33.298500
640.000000	33.237900
639.000000	33.189300
638.000000	33.101400
637.000000	33.022600
636.000000	32.909200
635.000000	32.819000
634.000000	32.709000
633.000000	32.626300
632.000000	32.504700
631.000000	32.347700
630.000000	32.201300
629.000000	32.067700
628.000000	31.915600
627.000000	31.788400
626.000000	31.631200
625.000000	31.514000
624.000000	31.337900
623.000000	31.168500
622.000000	30.991900
621.000000	30.800900
620.000000	30.653100
619.000000	30.496000
618.000000	30.321800
617.000000	30.168800
616.000000	30.078000
615.000000	29.970300
614.000000	29.824800
613.000000	29.713600
612.000000	29.667800
611.000000	29.623700
610.000000	29.544400
609.000000	29.502900
608.000000	29.477300
607.000000	29.461100
606.000000	29.475700
605.000000	29.461900
604.000000	29.453400
603.000000	29.466600
602.000000	29.489000
601.000000	29.503900
600.000000	29.544300
599.000000	29.604200
598.000000	29.649400
597.000000	29.695900
596.000000	29.776200
595.000000	29.862100
594.000000	29.928200
593.000000	29.999200
592.000000	30.065800
591.000000	30.129800
590.000000	30.218200
589.000000	30.301600
588.000000	30.361700
587.000000	30.484200
586.000000	30.550500
585.000000	30.643200
584.000000	30.698200
583.000000	30.814100
582.000000	30.918000
581.000000	31.006900
580.000000	31.080500
579.000000	31.138500
578.000000	31.176000
577.000000	31.272800
576.000000	31.328300
575.000000	31.393600
574.000000	31.462900
573.000000	31.564500
572.000000	31.635600
571.000000	31.684500
570.000000	31.722800
569.000000	31.759200
568.000000	31.778100
567.000000	31.755300
566.000000	31.737700
565.000000	31.703400
564.000000	31.720900
563.000000	31.705800
562.000000	31.662100
561.000000	31.621900
560.000000	31.616200
559.000000	32.012500
558.000000	32.007300
557.000000	31.981000
556.000000	31.968500
555.000000	31.927200
554.000000	31.817300
553.000000	31.745400
552.000000	31.709600
551.000000	31.634300
550.000000	31.559100
549.000000	31.454700
548.000000	31.343400
547.000000	31.234900
546.000000	31.119700
545.000000	31.009700
544.000000	30.888100
543.000000	30.764800
542.000000	30.640800
541.000000	30.548100
540.000000	30.414500
539.000000	30.281000
538.000000	30.109700
537.000000	29.946200
536.000000	29.789600
535.000000	29.591300
534.000000	29.361900
533.000000	29.142500
532.000000	28.959800
531.000000	28.741900
530.000000	28.512900
529.000000	28.285500
528.000000	28.070300
527.000000	27.835000
526.000000	27.630200
525.000000	27.385500
524.000000	27.142600
523.000000	26.908400
522.000000	26.672700
521.000000	26.427300
520.000000	26.176700
519.000000	25.935700
518.000000	25.679900
517.000000	25.421600
516.000000	25.172100
515.000000	24.909800
514.000000	24.632700
513.000000	24.374200
512.000000	24.088200
511.000000	23.794100
510.000000	23.520000
509.000000	23.217200
508.000000	22.918800
507.000000	22.618400
506.000000	22.325100
505.000000	22.029900
504.000000	21.727200
503.000000	21.413000
502.000000	21.100300
501.000000	20.800800
500.000000	20.505300
499.000000	20.177900
498.000000	19.877000
497.000000	19.575700
496.000000	19.277200
495.000000	18.961400
494.000000	18.659600
493.000000	18.357100
492.000000	18.047900
491.000000	17.739700
490.000000	17.426100
489.000000	17.116500
488.000000	16.824100
487.000000	16.540500
486.000000	16.237000
485.000000	15.957900
484.000000	15.699700
483.000000	15.435900
482.000000	15.127000
481.000000	14.806600
480.000000	14.510200
479.000000	14.289900
478.000000	14.123500
477.000000	13.977200
476.000000	13.858200
475.000000	13.757700
474.000000	13.674200
473.000000	13.598600
472.000000	13.539000
471.000000	13.501900
470.000000	13.476900
469.000000	13.451200
468.000000	13.433800
467.000000	13.434400
466.000000	13.424500
465.000000	13.424100
464.000000	13.445200
463.000000	13.465500
462.000000	13.468600
461.000000	13.470700
460.000000	13.476800
459.000000	13.471600
458.000000	13.464800
457.000000	13.454700
456.000000	13.443700
455.000000	13.415800
454.000000	13.401100
453.000000	13.393600
452.000000	13.340800
451.000000	13.277700
450.000000	13.243900
449.000000	13.211100
448.000000	13.164500
447.000000	13.099600
446.000000	13.041200
445.000000	13.012900
444.000000	12.949000
443.000000	12.829800
442.000000	12.722300
441.000000	12.628500
440.000000	12.540700
439.000000	12.435300
438.000000	12.305200
437.000000	12.204300
436.000000	12.106300
435.000000	11.988300
434.000000	11.864800
433.000000	11.740000
432.000000	11.620400
431.000000	11.505900
430.000000	11.389100
429.000000	11.249400
428.000000	11.128900
427.000000	11.002800
426.000000	10.856500
425.000000	10.697800
424.000000	10.553800
423.000000	10.418700
422.000000	10.279500
421.000000	10.135400
420.000000	9.983200
419.000000	9.809800
418.000000	9.635000
417.000000	9.462100
416.000000	9.292500
415.000000	9.128100
414.000000	8.955000
413.000000	8.771900
412.000000	8.583000
411.000000	8.401200
410.000000	8.212100
409.000000	8.014100
408.000000	7.821500
407.000000	7.631300
406.000000	7.447700
405.000000	7.260400
404.000000	7.059500
403.000000	6.870400
402.000000	6.689300
401.000000	6.483500
400.000000	6.293000
399.000000	6.120400
398.000000	5.940900
397.000000	5.761800
396.000000	5.598900
395.000000	5.443800
394.000000	5.283500
393.000000	5.133700
392.000000	4.985400
391.000000	4.844000
390.000000	4.729400
389.000000	4.622900
388.000000	4.504500
387.000000	4.401000
386.000000	4.309500
385.000000	4.219600
384.000000	4.138500
383.000000	4.065400
382.000000	3.987700
381.000000	3.916700
380.000000	3.860800
379.000000	3.794500
378.000000	3.738700
377.000000	3.702900
376.000000	3.839400
375.000000	3.752600
374.000000	3.618500
373.000000	3.585700
372.000000	3.637300
371.000000	3.582200
370.000000	3.463700
369.000000	3.460900
368.000000	3.522100
367.000000	3.526400
366.000000	3.517800
365.000000	3.461400
364.000000	3.460500
363.000000	3.409200
362.000000	3.443800
361.000000	3.413300
360.000000	3.384700
359.000000	3.415000
358.000000	3.407300
357.000000	3.366100
356.000000	3.306800
355.000000	3.192600
354.000000	3.182800
353.000000	3.183500
352.000000	3.187300
351.000000	3.242700
350.000000	3.268600
349.000000	3.195400
348.000000	3.123200
347.000000	3.190300
346.000000	3.060300
345.000000	3.170600
344.000000	3.168500
343.000000	3.177400
342.000000	3.255700
341.000000	3.385600
340.000000	3.038000
339.000000	3.173700
338.000000	3.195400
337.000000	3.184700
336.000000	3.098600
335.000000	3.261700
334.000000	3.138300
333.000000	3.137400
332.000000	3.180500
331.000000	3.190000
330.000000	3.071800
329.000000	2.962200
328.000000	3.027600
327.000000	3.220500
326.000000	2.995600
325.000000	3.506500
324.000000	3.384800
323.000000	2.901200
322.000000	3.172900
321.000000	3.470500
320.000000	3.625600
319.000000	3.128600
318.000000	3.321300
317.000000	3.709100
316.000000	3.024400
315.000000	2.985700
314.000000	2.843400
313.000000	2.955200
312.000000	2.904200
311.000000	2.864600
310.000000	2.921300
309.000000	2.876800
308.000000	2.925600
307.000000	2.864700
306.000000	2.877200
305.000000	2.927200
304.000000	2.869400
303.000000	2.868100
302.000000	2.860500
301.000000	2.869300
300.000000	2.921300
299.000000	2.928800
298.000000	2.896500
297.000000	2.901800
296.000000	2.911600
295.000000	2.917900
294.000000	2.939600
293.000000	2.916500
292.000000	2.938300
291.000000	2.937300
290.000000	2.888600
289.000000	2.877900
288.000000	2.895600
287.000000	2.947300
286.000000	2.910200
285.000000	2.913600
284.000000	2.868400
283.000000	2.944600
282.000000	2.904100
281.000000	2.928300
280.000000	2.945900
279.000000	2.937300
278.000000	2.903100
277.000000	2.905900
276.000000	2.901700
275.000000	2.955600
274.000000	2.955100
273.000000	2.900900
272.000000	2.941800
271.000000	2.936200
270.000000	2.976400
269.000000	3.015800
268.000000	2.947200
267.000000	2.962700
266.000000	2.972200
265.000000	3.017200
264.000000	3.011000
263.000000	3.043700
262.000000	3.044000
261.000000	3.029000
260.000000	3.044300
259.000000	3.072900
258.000000	3.049500
257.000000	3.059700
256.000000	3.090900
255.000000	3.119700
254.000000	3.060700
253.000000	3.042500
252.000000	3.092100
251.000000	3.090200
250.000000	3.043300
