PE UV       SUBTECH     SPECTRUM    ASCII       PEDS        4.00        
   -1
CICIMAUCR0258-1.ASC
24/07/01
14:18:30.00
24/07/01
14:18:30.00
Vinicio Soto Monge
C. resplendens. Sex M. Ventral
250,000000
1
Lambda 1050
1050L1511233
PerkinElmer UV WinLab 6.3.2.0749 / 2.02.05 Lambda 900 UV/VIS/NIR, Aug  7 2015 09:38:08

0
0
3350/servo 860,8/2
0
0
UV/VIS
1
1
1
DoubleDePol,CommonBeamDepol,RBeamAtt,SBeamAtt,60mm sphere, WB InGaAs Detector
0
0
0
0
Program
Program
3350/servo 860,8/2
3350/0,2 860,8/0,2
3350/0,2 860,8/0,2
0
15.00
 
 
 
0
 
860,8
319,2
860,8
Front
100
on
S:100 R:100
0
0
0
0
 
0
 
 
 
0
 
 
0
0
0
0
0
 
 
 
 
0
0


0
0
#HDR
-1
-1
#GR
nm
%R
1.0
0.0
2500,000000
-1,000000
2251
8
65,226500
3,924400
#DATA
2482.000000	5.961627
2481.000000	5.981148
2480.000000	5.951330
2479.000000	6.004852
2478.000000	5.984473
2477.000000	5.930736
2476.000000	5.975034
2475.000000	5.905960
2474.000000	5.994340
2473.000000	5.966668
2472.000000	5.976750
2471.000000	5.988441
2470.000000	6.012682
2469.000000	5.983507
2468.000000	5.985009
2467.000000	5.981362
2466.000000	6.003994
2465.000000	5.986618
2464.000000	5.998094
2463.000000	5.972138
2462.000000	6.034670
2461.000000	6.030808
2460.000000	6.092589
2459.000000	6.089371
2458.000000	6.100633
2457.000000	6.132596
2456.000000	6.149436
2455.000000	6.186225
2454.000000	6.177108
2453.000000	6.220655
2452.000000	6.266776
2451.000000	6.295951
2450.000000	6.335314
2449.000000	6.332633
2448.000000	6.357195
2447.000000	6.372962
2446.000000	6.452762
2445.000000	6.478611
2444.000000	6.469923
2443.000000	6.516366
2442.000000	6.560449
2441.000000	6.593485
2440.000000	6.648508
2439.000000	6.687550
2438.000000	6.696453
2437.000000	6.713829
2436.000000	6.760164
2435.000000	6.800922
2434.000000	6.812292
2433.000000	6.866993
2432.000000	6.884584
2431.000000	6.922017
2430.000000	6.929739
2429.000000	6.970712
2428.000000	7.004927
2427.000000	7.015224
2426.000000	7.059307
2425.000000	7.103605
2424.000000	7.119908
2423.000000	7.145436
2422.000000	7.174181
2421.000000	7.197027
2420.000000	7.218157
2419.000000	7.243577
2418.000000	7.268139
2417.000000	7.311257
2416.000000	7.326380
2415.000000	7.335068
2414.000000	7.349977
2413.000000	7.379366
2412.000000	7.395776
2411.000000	7.423342
2410.000000	7.445759
2409.000000	7.467532
2408.000000	7.474182
2407.000000	7.498315
2406.000000	7.528026
2405.000000	7.544973
2404.000000	7.551515
2403.000000	7.566424
2402.000000	7.580797
2401.000000	7.591415
2400.000000	7.583157
2399.000000	7.607504
2398.000000	7.621448
2397.000000	7.633568
2396.000000	7.652124
2395.000000	7.676149
2394.000000	7.669285
2393.000000	7.677007
2392.000000	7.689557
2391.000000	7.701677
2390.000000	7.706289
2389.000000	7.717229
2388.000000	7.731924
2387.000000	7.738037
2386.000000	7.754448
2385.000000	7.751874
2384.000000	7.750694
2383.000000	7.769786
2382.000000	7.764208
2381.000000	7.761956
2380.000000	7.765281
2379.000000	7.766246
2378.000000	7.759811
2377.000000	7.750265
2376.000000	7.749514
2375.000000	7.767641
2374.000000	7.774183
2373.000000	7.764745
2372.000000	7.749943
2371.000000	7.726668
2370.000000	7.726239
2369.000000	7.728706
2368.000000	7.720662
2367.000000	7.702749
2366.000000	7.693847
2365.000000	7.682692
2364.000000	7.662635
2363.000000	7.644937
2362.000000	7.621126
2361.000000	7.596671
2360.000000	7.593453
2359.000000	7.582620
2358.000000	7.554519
2357.000000	7.528026
2356.000000	7.502284
2355.000000	7.485444
2354.000000	7.481797
2353.000000	7.481583
2352.000000	7.468068
2351.000000	7.462384
2350.000000	7.465280
2349.000000	7.460668
2348.000000	7.457986
2347.000000	7.477936
2346.000000	7.493274
2345.000000	7.507861
2344.000000	7.535427
2343.000000	7.554304
2342.000000	7.568784
2341.000000	7.572645
2340.000000	7.580904
2339.000000	7.607719
2338.000000	7.615870
2337.000000	7.613832
2336.000000	7.616514
2335.000000	7.622199
2334.000000	7.633782
2333.000000	7.642470
2332.000000	7.628098
2331.000000	7.617050
2330.000000	7.611473
2329.000000	7.599031
2328.000000	7.590236
2327.000000	7.575005
2326.000000	7.557093
2325.000000	7.541862
2324.000000	7.526846
2323.000000	7.492952
2322.000000	7.455412
2321.000000	7.413474
2320.000000	7.386552
2319.000000	7.348154
2318.000000	7.318765
2317.000000	7.303105
2316.000000	7.239716
2315.000000	7.182762
2314.000000	7.156162
2313.000000	7.116369
2312.000000	7.079150
2311.000000	7.027237
2310.000000	6.987015
2309.000000	6.942181
2308.000000	6.921802
2307.000000	6.901316
2306.000000	6.865277
2305.000000	6.878684
2304.000000	6.881151
2303.000000	6.871069
2302.000000	6.882224
2301.000000	6.879435
2300.000000	6.911398
2299.000000	6.939714
2298.000000	6.961595
2297.000000	7.011899
2296.000000	7.035389
2295.000000	7.052228
2294.000000	7.100387
2293.000000	7.147688
2292.000000	7.176219
2291.000000	7.199387
2290.000000	7.244542
2289.000000	7.264814
2288.000000	7.269533
2287.000000	7.271035
2286.000000	7.285086
2285.000000	7.296348
2284.000000	7.302140
2283.000000	7.287446
2282.000000	7.273717
2281.000000	7.269319
2280.000000	7.257092
2279.000000	7.238000
2278.000000	7.230062
2277.000000	7.201210
2276.000000	7.168174
2275.000000	7.138464
2274.000000	7.128167
2273.000000	7.103069
2272.000000	7.097599
2271.000000	7.074002
2270.000000	7.102961
2269.000000	7.101245
2268.000000	7.102318
2267.000000	7.153158
2266.000000	7.185765
2265.000000	7.210220
2264.000000	7.256233
2263.000000	7.308146
2262.000000	7.376792
2261.000000	7.477507
2260.000000	7.562348
2259.000000	7.654590
2258.000000	7.768821
2257.000000	7.860205
2256.000000	8.001571
2255.000000	8.116766
2254.000000	8.234965
2253.000000	8.385555
2252.000000	8.526922
2251.000000	8.624634
2250.000000	8.742618
2249.000000	8.896533
2248.000000	8.990492
2247.000000	9.093567
2246.000000	9.192030
2245.000000	9.308941
2244.000000	9.391208
2243.000000	9.504688
2242.000000	9.565718
2241.000000	9.630609
2240.000000	9.713948
2239.000000	9.761678
2238.000000	9.838904
2237.000000	9.871082
2236.000000	9.939512
2235.000000	9.969008
2234.000000	9.998826
2233.000000	10.041301
2232.000000	10.072834
2231.000000	10.104797
2230.000000	10.127429
2229.000000	10.126893
2228.000000	10.166364
2227.000000	10.169581
2226.000000	10.132792
2225.000000	10.158427
2224.000000	10.143089
2223.000000	10.134722
2222.000000	10.136868
2221.000000	10.126571
2220.000000	10.091176
2219.000000	10.062109
2218.000000	10.055459
2217.000000	10.036688
2216.000000	10.003438
2215.000000	9.964075
2214.000000	9.963538
2213.000000	9.912483
2212.000000	9.933935
2211.000000	9.876981
2210.000000	9.853277
2209.000000	9.844053
2208.000000	9.829358
2207.000000	9.804796
2206.000000	9.792890
2205.000000	9.774442
2204.000000	9.770474
2203.000000	9.748700
2202.000000	9.751382
2201.000000	9.717381
2200.000000	9.696894
2199.000000	9.696358
2198.000000	9.699361
2197.000000	9.678982
2196.000000	9.659139
2195.000000	9.653669
2194.000000	9.640798
2193.000000	9.636293
2192.000000	9.630180
2191.000000	9.626855
2190.000000	9.598646
2189.000000	9.605725
2188.000000	9.590601
2187.000000	9.584917
2186.000000	9.551774
2185.000000	9.565289
2184.000000	9.552632
2183.000000	9.542979
2182.000000	9.548771
2181.000000	9.515199
2180.000000	9.508334
2179.000000	9.500290
2178.000000	9.493426
2177.000000	9.470901
2176.000000	9.489135
2175.000000	9.472081
2174.000000	9.460819
2173.000000	9.449771
2172.000000	9.450200
2171.000000	9.448699
2170.000000	9.435399
2169.000000	9.476264
2168.000000	9.460068
2167.000000	9.464466
2166.000000	9.463393
2165.000000	9.465967
2164.000000	9.489457
2163.000000	9.507369
2162.000000	9.500719
2161.000000	9.542764
2160.000000	9.543193
2159.000000	9.552847
2158.000000	9.565181
2157.000000	9.574298
2156.000000	9.614520
2155.000000	9.659783
2154.000000	9.671689
2153.000000	9.701614
2152.000000	9.727570
2151.000000	9.745482
2150.000000	9.762536
2149.000000	9.788815
2148.000000	9.829358
2147.000000	9.853277
2146.000000	9.872476
2145.000000	9.903688
2144.000000	9.935222
2143.000000	9.966113
2142.000000	9.990996
2141.000000	9.988100
2140.000000	10.020492
2139.000000	10.053742
2138.000000	10.084418
2137.000000	10.096753
2136.000000	10.115309
2135.000000	10.135580
2134.000000	10.152098
2133.000000	10.152420
2132.000000	10.165506
2131.000000	10.175695
2130.000000	10.182345
2129.000000	10.186206
2128.000000	10.194787
2127.000000	10.213021
2126.000000	10.201973
2125.000000	10.209052
2124.000000	10.215917
2123.000000	10.197683
2122.000000	10.190282
2121.000000	10.191248
2120.000000	10.191891
2119.000000	10.180093
2118.000000	10.167651
2117.000000	10.166256
2116.000000	10.144590
2115.000000	10.132577
2114.000000	10.109517
2113.000000	10.081844
2112.000000	10.067042
2111.000000	10.051490
2110.000000	10.026392
2109.000000	10.012877
2108.000000	10.001186
2107.000000	9.979949
2106.000000	9.943159
2105.000000	9.937153
2104.000000	9.937153
2103.000000	9.904439
2102.000000	9.872691
2101.000000	9.845769
2100.000000	9.827642
2099.000000	9.814557
2098.000000	9.793534
2097.000000	9.784310
2096.000000	9.765111
2095.000000	9.729930
2094.000000	9.719955
2093.000000	9.713519
2092.000000	9.688314
2091.000000	9.644338
2090.000000	9.641227
2089.000000	9.636937
2088.000000	9.607763
2087.000000	9.586740
2086.000000	9.576122
2085.000000	9.548020
2084.000000	9.525174
2083.000000	9.503508
2082.000000	9.477015
2081.000000	9.453311
2080.000000	9.423171
2079.000000	9.397322
2078.000000	9.363429
2077.000000	9.333718
2076.000000	9.300146
2075.000000	9.252953
2074.000000	9.218415
2073.000000	9.195569
2072.000000	9.153417
2071.000000	9.107403
2070.000000	9.080803
2069.000000	9.041547
2068.000000	8.994353
2067.000000	8.947374
2066.000000	8.900073
2065.000000	8.857599
2064.000000	8.820487
2063.000000	8.778335
2062.000000	8.746586
2061.000000	8.717841
2060.000000	8.693708
2059.000000	8.659815
2058.000000	8.630319
2057.000000	8.606936
2056.000000	8.592993
2055.000000	8.572185
2054.000000	8.570898
2053.000000	8.578620
2052.000000	8.564033
2051.000000	8.560708
2050.000000	8.571112
2049.000000	8.584519
2048.000000	8.603289
2047.000000	8.644798
2046.000000	8.667859
2045.000000	8.688131
2044.000000	8.732965
2043.000000	8.767609
2042.000000	8.800216
2041.000000	8.817162
2040.000000	8.849340
2039.000000	8.883984
2038.000000	8.918307
2037.000000	8.956062
2036.000000	8.967860
2035.000000	8.978908
2034.000000	9.010978
2033.000000	9.033180
2032.000000	9.048733
2031.000000	9.061818
2030.000000	9.064929
2029.000000	9.063427
2028.000000	9.065894
2027.000000	9.083806
2026.000000	9.096570
2025.000000	9.086917
2024.000000	9.101397
2023.000000	9.085415
2022.000000	9.081018
2021.000000	9.100968
2020.000000	9.076513
2019.000000	9.058386
2018.000000	9.056455
2017.000000	9.046051
2016.000000	9.027925
2015.000000	9.007975
2014.000000	8.991457
2013.000000	8.990599
2012.000000	8.971292
2011.000000	8.933430
2010.000000	8.919487
2009.000000	8.898786
2008.000000	8.885915
2007.000000	8.856204
2006.000000	8.821560
2005.000000	8.815232
2004.000000	8.770076
2003.000000	8.721166
2002.000000	8.684591
2001.000000	8.676869
2000.000000	8.655846
1999.000000	8.599214
1998.000000	8.572614
1997.000000	8.529818
1996.000000	8.491312
1995.000000	8.446263
1994.000000	8.416017
1993.000000	8.371397
1992.000000	8.324418
1991.000000	8.296424
1990.000000	8.255022
1989.000000	8.210617
1988.000000	8.172004
1987.000000	8.115479
1986.000000	8.085769
1985.000000	8.033963
1984.000000	7.988700
1983.000000	7.956308
1982.000000	7.907398
1981.000000	7.859561
1980.000000	7.799067
1979.000000	7.787376
1978.000000	7.735034
1977.000000	7.691487
1976.000000	7.651265
1975.000000	7.624665
1974.000000	7.588519
1973.000000	7.535105
1972.000000	7.485981
1971.000000	7.448976
1970.000000	7.429026
1969.000000	7.383656
1968.000000	7.335605
1967.000000	7.295275
1966.000000	7.284442
1965.000000	7.245079
1964.000000	7.219337
1963.000000	7.167316
1962.000000	7.145221
1961.000000	7.123984
1960.000000	7.097062
1959.000000	7.045578
1958.000000	7.024448
1957.000000	6.989482
1956.000000	6.971248
1955.000000	6.932850
1954.000000	6.915045
1953.000000	6.895739
1952.000000	6.849403
1951.000000	6.817869
1950.000000	6.805213
1949.000000	6.796739
1948.000000	6.758448
1947.000000	6.747829
1946.000000	6.733242
1945.000000	6.699349
1944.000000	6.684869
1943.000000	6.653120
1942.000000	6.645934
1941.000000	6.650868
1940.000000	6.652477
1939.000000	6.634565
1938.000000	6.609037
1937.000000	6.614722
1936.000000	6.614186
1935.000000	6.607965
1934.000000	6.595308
1933.000000	6.621372
1932.000000	6.631562
1931.000000	6.638962
1930.000000	6.668780
1929.000000	6.674894
1928.000000	6.698812
1927.000000	6.723696
1926.000000	6.750189
1925.000000	6.753621
1924.000000	6.799421
1923.000000	6.853801
1922.000000	6.879006
1921.000000	6.908502
1920.000000	6.955374
1919.000000	7.010183
1918.000000	7.068746
1917.000000	7.136426
1916.000000	7.197241
1915.000000	7.237892
1914.000000	7.321232
1913.000000	7.383656
1912.000000	7.467318
1911.000000	7.565995
1910.000000	7.629278
1909.000000	7.711008
1908.000000	7.816550
1907.000000	7.913619
1906.000000	8.031710
1905.000000	8.175758
1904.000000	8.284518
1903.000000	8.414515
1902.000000	8.542152
1901.000000	8.696819
1900.000000	8.864892
1899.000000	9.015268
1898.000000	9.222277
1897.000000	9.403650
1896.000000	9.609908
1895.000000	9.808443
1894.000000	10.046127
1893.000000	10.284991
1892.000000	10.558500
1891.000000	10.863006
1890.000000	11.181563
1889.000000	11.513634
1888.000000	11.864154
1887.000000	12.248568
1886.000000	12.639953
1885.000000	13.078532
1884.000000	13.515716
1883.000000	14.001810
1882.000000	14.496485
1881.000000	14.993627
1880.000000	15.512328
1879.000000	16.007861
1878.000000	16.512404
1877.000000	17.018019
1876.000000	17.534896
1875.000000	18.053704
1874.000000	18.550417
1873.000000	19.029433
1872.000000	19.540518
1871.000000	20.012347
1870.000000	20.460686
1869.000000	20.882747
1868.000000	21.305774
1867.000000	21.656830
1866.000000	21.965090
1865.000000	22.240422
1864.000000	22.511571
1863.000000	22.767811
1862.000000	23.003672
1861.000000	23.261306
1860.000000	23.506176
1859.000000	23.737640
1858.000000	23.961273
1857.000000	24.120122
1856.000000	24.278007
1855.000000	24.428597
1854.000000	24.546903
1853.000000	24.659310
1852.000000	24.728813
1851.000000	24.799925
1850.000000	24.878974
1849.000000	24.951695
1848.000000	25.016694
1847.000000	25.069143
1846.000000	25.104109
1845.000000	25.106684
1844.000000	25.102286
1843.000000	25.106147
1842.000000	25.131460
1841.000000	25.158382
1840.000000	25.175651
1839.000000	25.181764
1838.000000	25.165783
1837.000000	25.150123
1836.000000	25.144331
1835.000000	25.124059
1834.000000	25.082229
1833.000000	25.042972
1832.000000	24.996208
1831.000000	24.952983
1830.000000	24.923165
1829.000000	24.887340
1828.000000	24.825989
1827.000000	24.749299
1826.000000	24.713904
1825.000000	24.679689
1824.000000	24.614047
1823.000000	24.568676
1822.000000	24.543471
1821.000000	24.525880
1820.000000	24.517300
1819.000000	24.478472
1818.000000	24.414439
1817.000000	24.394274
1816.000000	24.368425
1815.000000	24.337857
1814.000000	24.317478
1813.000000	24.289483
1812.000000	24.271357
1811.000000	24.237677
1810.000000	24.200459
1809.000000	24.176004
1808.000000	24.136104
1807.000000	24.090626
1806.000000	24.049332
1805.000000	23.987122
1804.000000	23.928988
1803.000000	23.890697
1802.000000	23.853800
1801.000000	23.804461
1800.000000	23.759842
1799.000000	23.693771
1798.000000	23.622659
1797.000000	23.580614
1796.000000	23.536101
1795.000000	23.492662
1794.000000	23.444396
1793.000000	23.386905
1792.000000	23.337674
1791.000000	23.295843
1790.000000	23.249507
1789.000000	23.201134
1788.000000	23.157909
1787.000000	23.098917
1786.000000	23.043679
1785.000000	23.001955
1784.000000	22.958945
1783.000000	22.904136
1782.000000	22.855333
1781.000000	22.811787
1780.000000	22.739173
1779.000000	22.672780
1778.000000	22.617864
1777.000000	22.558014
1776.000000	22.514145
1775.000000	22.449576
1774.000000	22.354116
1773.000000	22.269489
1772.000000	22.207708
1771.000000	22.137240
1770.000000	22.050682
1769.000000	21.967986
1768.000000	21.871883
1767.000000	21.789616
1766.000000	21.719898
1765.000000	21.655865
1764.000000	21.601914
1763.000000	21.559118
1762.000000	21.543458
1761.000000	21.546140
1760.000000	21.566304
1759.000000	21.614678
1758.000000	21.669165
1757.000000	21.732018
1756.000000	21.776101
1755.000000	21.845712
1754.000000	21.917575
1753.000000	21.981608
1752.000000	22.028051
1751.000000	22.051755
1750.000000	22.058083
1749.000000	22.059263
1748.000000	22.060764
1747.000000	22.057332
1746.000000	22.015823
1745.000000	21.967021
1744.000000	21.908458
1743.000000	21.844103
1742.000000	21.749287
1741.000000	21.627227
1740.000000	21.503773
1739.000000	21.351251
1738.000000	21.187039
1737.000000	21.043957
1736.000000	20.894546
1735.000000	20.770019
1734.000000	20.658363
1733.000000	20.585106
1732.000000	20.539414
1731.000000	20.537590
1730.000000	20.561724
1729.000000	20.610419
1728.000000	20.701910
1727.000000	20.773022
1726.000000	20.851750
1725.000000	20.939165
1724.000000	21.033445
1723.000000	21.095440
1722.000000	21.164729
1721.000000	21.222112
1720.000000	21.294190
1719.000000	21.360905
1718.000000	21.432660
1717.000000	21.515571
1716.000000	21.588721
1715.000000	21.665947
1714.000000	21.758404
1713.000000	21.854292
1712.000000	21.952112
1711.000000	22.052398
1710.000000	22.108494
1709.000000	22.161373
1708.000000	22.208781
1707.000000	22.215002
1706.000000	22.216825
1705.000000	22.181430
1704.000000	22.140457
1703.000000	22.094873
1702.000000	22.029660
1701.000000	21.944389
1700.000000	21.851504
1699.000000	21.713248
1698.000000	21.595049
1697.000000	21.465696
1696.000000	21.357258
1695.000000	21.280675
1694.000000	21.239381
1693.000000	21.240990
1692.000000	21.281426
1691.000000	21.365624
1690.000000	21.503022
1689.000000	21.620577
1688.000000	21.769773
1687.000000	21.884968
1686.000000	22.015072
1685.000000	22.121902
1684.000000	22.220043
1683.000000	22.338242
1682.000000	22.510713
1681.000000	22.717185
1680.000000	23.032631
1679.000000	23.410824
1678.000000	23.836424
1677.000000	24.292486
1676.000000	24.722699
1675.000000	25.154092
1674.000000	25.533357
1673.000000	25.883126
1672.000000	26.202648
1671.000000	26.478838
1670.000000	26.723923
1669.000000	26.935007
1668.000000	27.131397
1667.000000	27.314058
1666.000000	27.432042
1665.000000	27.561503
1664.000000	27.672515
1663.000000	27.770442
1662.000000	27.840267
1661.000000	27.900117
1660.000000	27.955784
1659.000000	28.032473
1658.000000	28.069907
1657.000000	28.104658
1656.000000	28.124394
1655.000000	28.144987
1654.000000	28.167297
1653.000000	28.153568
1652.000000	28.137265
1651.000000	28.107983
1650.000000	28.095112
1649.000000	28.060146
1648.000000	28.030006
1647.000000	27.981633
1646.000000	27.920925
1645.000000	27.875340
1644.000000	27.820746
1643.000000	27.748561
1642.000000	27.707374
1641.000000	27.640981
1640.000000	27.584349
1639.000000	27.532650
1638.000000	27.446307
1637.000000	27.389460
1636.000000	27.341623
1635.000000	27.250239
1634.000000	27.170975
1633.000000	27.127107
1632.000000	27.025962
1631.000000	26.941014
1630.000000	26.859497
1629.000000	26.746769
1628.000000	26.677695
1627.000000	26.605295
1626.000000	26.512946
1625.000000	26.417165
1624.000000	26.307761
1623.000000	26.230428
1622.000000	26.149555
1621.000000	26.051521
1620.000000	25.971614
1619.000000	25.870362
1618.000000	25.792278
1617.000000	25.708080
1616.000000	25.635681
1615.000000	25.532713
1614.000000	25.474257
1613.000000	25.402502
1612.000000	25.298998
1611.000000	25.204932
1610.000000	25.119447
1609.000000	25.041256
1608.000000	24.935070
1607.000000	24.868249
1606.000000	24.783193
1605.000000	24.692452
1604.000000	24.612116
1603.000000	24.511508
1602.000000	24.411436
1601.000000	24.317585
1600.000000	24.236712
1599.000000	24.145864
1598.000000	24.051477
1597.000000	23.948080
1596.000000	23.869567
1595.000000	23.791590
1594.000000	23.682509
1593.000000	23.592734
1592.000000	23.513041
1591.000000	23.424446
1590.000000	23.362450
1589.000000	23.278038
1588.000000	23.205102
1587.000000	23.123050
1586.000000	23.052152
1585.000000	22.957121
1584.000000	22.888262
1583.000000	22.818544
1582.000000	22.745286
1581.000000	22.679644
1580.000000	22.613573
1579.000000	22.552007
1578.000000	22.474138
1577.000000	22.423297
1576.000000	22.376747
1575.000000	22.330304
1574.000000	22.282682
1573.000000	22.236775
1572.000000	22.202667
1571.000000	22.165985
1570.000000	22.121473
1569.000000	22.073099
1568.000000	22.057225
1567.000000	22.026227
1566.000000	21.998769
1565.000000	21.970989
1564.000000	21.939563
1563.000000	21.911354
1562.000000	21.888293
1561.000000	21.846248
1560.000000	21.816967
1559.000000	21.780499
1558.000000	21.739097
1557.000000	21.682143
1556.000000	21.635164
1555.000000	21.580998
1554.000000	21.534985
1553.000000	21.480283
1552.000000	21.418180
1551.000000	21.345996
1550.000000	21.267161
1549.000000	21.200983
1548.000000	21.135770
1547.000000	21.067017
1546.000000	21.013710
1545.000000	20.957077
1544.000000	20.904199
1543.000000	20.833301
1542.000000	20.774524
1541.000000	20.722289
1540.000000	20.665549
1539.000000	20.628224
1538.000000	20.588645
1537.000000	20.531798
1536.000000	20.475488
1535.000000	20.412206
1534.000000	20.354715
1533.000000	20.297225
1532.000000	20.233192
1531.000000	20.168729
1530.000000	20.096652
1529.000000	20.046562
1528.000000	19.986069
1527.000000	19.908199
1526.000000	19.850923
1525.000000	19.787963
1524.000000	19.701513
1523.000000	19.626003
1522.000000	19.537729
1521.000000	19.463936
1520.000000	19.397006
1519.000000	19.315168
1518.000000	19.234510
1517.000000	19.159322
1516.000000	19.081775
1515.000000	19.000258
1514.000000	18.937512
1513.000000	18.852242
1512.000000	18.749489
1511.000000	18.668080
1510.000000	18.583024
1509.000000	18.507085
1508.000000	18.436187
1507.000000	18.342015
1506.000000	18.258031
1505.000000	18.172761
1504.000000	18.082664
1503.000000	18.004044
1502.000000	17.923815
1501.000000	17.846267
1500.000000	17.770006
1499.000000	17.704793
1498.000000	17.633681
1497.000000	17.552380
1496.000000	17.479980
1495.000000	17.416591
1494.000000	17.338078
1493.000000	17.270719
1492.000000	17.217305
1491.000000	17.145656
1490.000000	17.078727
1489.000000	17.036467
1488.000000	16.984983
1487.000000	16.918805
1486.000000	16.878047
1485.000000	16.827636
1484.000000	16.767142
1483.000000	16.715765
1482.000000	16.673077
1481.000000	16.626527
1480.000000	16.581800
1479.000000	16.558096
1478.000000	16.516158
1477.000000	16.462529
1476.000000	16.420269
1475.000000	16.406325
1474.000000	16.386697
1473.000000	16.350015
1472.000000	16.345081
1471.000000	16.327812
1470.000000	16.308828
1469.000000	16.290165
1468.000000	16.265710
1467.000000	16.250265
1466.000000	16.238466
1465.000000	16.249621
1464.000000	16.259382
1463.000000	16.252410
1462.000000	16.255628
1461.000000	16.282978
1460.000000	16.295528
1459.000000	16.304108
1458.000000	16.336286
1457.000000	16.359990
1456.000000	16.405038
1455.000000	16.449229
1454.000000	16.481084
1453.000000	16.532139
1452.000000	16.607649
1451.000000	16.671039
1450.000000	16.724990
1449.000000	16.773470
1448.000000	16.818411
1447.000000	16.878369
1446.000000	16.974472
1445.000000	17.055774
1444.000000	17.105971
1443.000000	17.161745
1442.000000	17.251198
1441.000000	17.338828
1440.000000	17.429569
1439.000000	17.523742
1438.000000	17.615876
1437.000000	17.713803
1436.000000	17.808512
1435.000000	17.953954
1434.000000	18.076550
1433.000000	18.186383
1432.000000	18.294928
1431.000000	18.424282
1430.000000	18.570046
1429.000000	18.716131
1428.000000	18.862753
1427.000000	19.026537
1426.000000	19.196541
1425.000000	19.377485
1424.000000	19.595970
1423.000000	19.812310
1422.000000	20.011167
1421.000000	20.205948
1420.000000	20.448459
1419.000000	20.716175
1418.000000	20.988719
1417.000000	21.250750
1416.000000	21.496586
1415.000000	21.793799
1414.000000	22.131340
1413.000000	22.477570
1412.000000	22.802455
1411.000000	23.108892
1410.000000	23.479898
1409.000000	23.923947
1408.000000	24.367782
1407.000000	24.813976
1406.000000	25.249015
1405.000000	25.710655
1404.000000	26.230535
1403.000000	26.718882
1402.000000	27.216989
1401.000000	27.741375
1400.000000	28.328077
1399.000000	28.931297
1398.000000	29.437342
1397.000000	29.879675
1396.000000	30.407814
1395.000000	31.031950
1394.000000	31.678180
1393.000000	32.196559
1392.000000	32.722554
1391.000000	33.380369
1390.000000	34.013621
1389.000000	34.593888
1388.000000	35.269508
1387.000000	36.034795
1386.000000	36.772946
1385.000000	37.448995
1384.000000	38.200339
1383.000000	38.948787
1382.000000	39.669133
1381.000000	40.412111
1380.000000	41.039571
1379.000000	41.519444
1378.000000	41.937001
1377.000000	42.307900
1376.000000	42.677297
1375.000000	42.976547
1374.000000	43.291672
1373.000000	43.595106
1372.000000	43.943159
1371.000000	44.346128
1370.000000	44.733759
1369.000000	45.079774
1368.000000	45.402621
1367.000000	45.758826
1366.000000	46.058613
1365.000000	46.291899
1364.000000	46.564979
1363.000000	46.785180
1362.000000	46.991545
1361.000000	47.225689
1360.000000	47.455865
1359.000000	47.525261
1358.000000	47.697411
1357.000000	47.831055
1356.000000	48.003633
1355.000000	48.213752
1354.000000	48.501311
1353.000000	48.828234
1352.000000	49.101528
1351.000000	49.533779
1350.000000	49.963992
1349.000000	50.363636
1348.000000	50.774220
1347.000000	51.140722
1346.000000	51.531249
1345.000000	51.825458
1344.000000	52.180483
1343.000000	52.567471
1342.000000	52.912842
1341.000000	53.233115
1340.000000	53.549420
1339.000000	53.889857
1338.000000	54.217746
1337.000000	54.549710
1336.000000	54.854001
1335.000000	55.192079
1334.000000	55.491973
1333.000000	55.813748
1332.000000	56.126191
1331.000000	56.420079
1330.000000	56.711178
1329.000000	57.003135
1328.000000	57.308391
1327.000000	57.575357
1326.000000	57.825805
1325.000000	58.090626
1324.000000	58.347616
1323.000000	58.572108
1322.000000	58.814404
1321.000000	59.044366
1320.000000	59.265747
1319.000000	59.479083
1318.000000	59.685341
1317.000000	59.873579
1316.000000	60.082089
1315.000000	60.260674
1314.000000	60.446874
1313.000000	60.619989
1312.000000	60.794498
1311.000000	60.954313
1310.000000	61.115737
1309.000000	61.249059
1308.000000	61.374336
1307.000000	61.513236
1306.000000	61.641516
1305.000000	61.744377
1304.000000	61.844878
1303.000000	61.956427
1302.000000	62.037621
1301.000000	62.101011
1300.000000	62.181347
1299.000000	62.262649
1298.000000	62.326682
1297.000000	62.395649
1296.000000	62.457537
1295.000000	62.492932
1294.000000	62.531760
1293.000000	62.572625
1292.000000	62.615314
1291.000000	62.651460
1290.000000	62.657466
1289.000000	62.687070
1288.000000	62.689322
1287.000000	62.678489
1286.000000	62.685568
1285.000000	62.671946
1284.000000	62.655536
1283.000000	62.624324
1282.000000	62.611345
1281.000000	62.595578
1280.000000	62.570587
1279.000000	62.524037
1278.000000	62.494756
1277.000000	62.474484
1276.000000	62.445953
1275.000000	62.420426
1274.000000	62.391359
1273.000000	62.363686
1272.000000	62.348884
1271.000000	62.335799
1270.000000	62.320032
1269.000000	62.291072
1268.000000	62.282277
1267.000000	62.262005
1266.000000	62.236371
1265.000000	62.209771
1264.000000	62.187139
1263.000000	62.165258
1262.000000	62.124500
1261.000000	62.078808
1260.000000	62.044271
1259.000000	62.008661
1258.000000	61.971228
1257.000000	61.919530
1256.000000	61.872014
1255.000000	61.816240
1254.000000	61.766901
1253.000000	61.719815
1252.000000	61.648167
1251.000000	61.572871
1250.000000	61.507551
1249.000000	61.433221
1248.000000	61.339692
1247.000000	61.249595
1246.000000	61.158533
1245.000000	61.065218
1244.000000	60.982844
1243.000000	60.884381
1242.000000	60.759854
1241.000000	60.648413
1240.000000	60.555205
1239.000000	60.449556
1238.000000	60.336291
1237.000000	60.231822
1236.000000	60.127996
1235.000000	60.020952
1234.000000	59.896211
1233.000000	59.775760
1232.000000	59.665391
1231.000000	59.538290
1230.000000	59.406041
1229.000000	59.266176
1228.000000	59.126418
1227.000000	58.991595
1226.000000	58.849263
1225.000000	58.696206
1224.000000	58.544006
1223.000000	58.380008
1222.000000	58.225342
1221.000000	58.068638
1220.000000	57.903138
1219.000000	57.738390
1218.000000	57.575786
1217.000000	57.427984
1216.000000	57.274391
1215.000000	57.116292
1214.000000	56.968383
1213.000000	56.816183
1212.000000	56.669561
1211.000000	56.544177
1210.000000	56.406564
1209.000000	56.260908
1208.000000	56.131554
1207.000000	55.998983
1206.000000	55.872526
1205.000000	55.746604
1204.000000	55.655542
1203.000000	55.578638
1202.000000	55.488327
1201.000000	55.408419
1200.000000	55.322291
1199.000000	55.256220
1198.000000	55.193152
1197.000000	55.100803
1196.000000	54.982175
1195.000000	54.849282
1194.000000	54.681423
1193.000000	54.480850
1192.000000	54.249494
1191.000000	53.985210
1190.000000	53.697007
1189.000000	53.397649
1188.000000	53.112771
1187.000000	52.870261
1186.000000	52.692319
1185.000000	52.603509
1184.000000	52.596323
1183.000000	52.681486
1182.000000	52.884526
1181.000000	53.145914
1180.000000	53.475519
1179.000000	53.852746
1178.000000	54.245526
1177.000000	54.614387
1176.000000	54.946887
1175.000000	55.265980
1174.000000	55.542492
1173.000000	55.796801
1172.000000	56.049394
1171.000000	56.301451
1170.000000	56.555224
1169.000000	56.804171
1168.000000	57.070600
1167.000000	57.356550
1166.000000	57.637567
1165.000000	57.934779
1164.000000	58.239071
1163.000000	58.553552
1162.000000	58.862134
1161.000000	59.187341
1160.000000	59.505469
1159.000000	59.821237
1158.000000	60.131750
1157.000000	60.444300
1156.000000	60.735935
1155.000000	61.027463
1154.000000	61.307943
1153.000000	61.542410
1152.000000	61.755103
1151.000000	61.961468
1150.000000	62.148204
1149.000000	62.313060
1148.000000	62.495399
1147.000000	62.661971
1146.000000	62.840985
1145.000000	63.087250
1144.000000	63.330405
1143.000000	63.594689
1142.000000	63.900911
1141.000000	64.241349
1140.000000	64.597768
1139.000000	64.991727
1138.000000	65.381289
1137.000000	65.773532
1136.000000	66.192912
1135.000000	66.632349
1134.000000	67.071357
1133.000000	67.488484
1132.000000	67.845761
1131.000000	68.172255
1130.000000	68.476869
1129.000000	68.752630
1128.000000	68.982484
1127.000000	69.178874
1126.000000	69.351452
1125.000000	69.495286
1124.000000	69.595143
1123.000000	69.694571
1122.000000	69.756567
1121.000000	69.839370
1120.000000	69.867901
1119.000000	69.911876
1118.000000	69.941265
1117.000000	69.954887
1116.000000	69.954351
1115.000000	69.959821
1114.000000	69.951455
1113.000000	69.960786
1112.000000	69.950489
1111.000000	69.936224
1110.000000	69.937940
1109.000000	69.910697
1108.000000	69.889996
1107.000000	69.884847
1106.000000	69.871333
1105.000000	69.873371
1104.000000	69.869509
1103.000000	69.842909
1102.000000	69.812663
1101.000000	69.798397
1100.000000	69.790460
1099.000000	69.785634
1098.000000	69.767614
1097.000000	69.729859
1096.000000	69.713341
1095.000000	69.691032
1094.000000	69.670867
1093.000000	69.636974
1092.000000	69.579590
1091.000000	69.548700
1090.000000	69.506011
1089.000000	69.491531
1088.000000	69.413126
1087.000000	69.388885
1086.000000	69.318524
1085.000000	69.271545
1084.000000	69.231538
1083.000000	69.146053
1082.000000	69.105938
1081.000000	69.064107
1080.000000	69.018844
1079.000000	68.939366
1078.000000	68.883270
1077.000000	68.827925
1076.000000	68.753595
1075.000000	68.706938
1074.000000	68.631642
1073.000000	68.578549
1072.000000	68.513229
1071.000000	68.427101
1070.000000	68.361352
1069.000000	68.299893
1068.000000	68.211941
1067.000000	68.144690
1066.000000	68.085269
1065.000000	68.010510
1064.000000	67.946155
1063.000000	67.866784
1062.000000	67.774327
1061.000000	67.686912
1060.000000	67.624809
1059.000000	67.549300
1058.000000	67.452338
1057.000000	67.364065
1056.000000	67.289949
1055.000000	67.205966
1054.000000	67.118121
1053.000000	67.031242
1052.000000	66.972787
1051.000000	66.877970
1050.000000	66.789053
1049.000000	66.693915
1048.000000	66.632563
1047.000000	66.545684
1046.000000	66.462237
1045.000000	66.371068
1044.000000	66.302530
1043.000000	66.223052
1042.000000	66.139926
1041.000000	66.068922
1040.000000	65.988478
1039.000000	65.899346
1038.000000	65.804530
1037.000000	65.734705
1036.000000	65.639031
1035.000000	65.534132
1034.000000	65.461733
1033.000000	65.379680
1032.000000	65.293016
1031.000000	65.190584
1030.000000	65.085578
1029.000000	65.001702
1028.000000	64.905277
1027.000000	64.808101
1026.000000	64.722724
1025.000000	64.614500
1024.000000	64.504024
1023.000000	64.404167
1022.000000	64.322436
1021.000000	64.220004
1020.000000	64.118323
1019.000000	64.012138
1018.000000	63.924722
1017.000000	63.826259
1016.000000	63.737449
1015.000000	63.633945
1014.000000	63.570985
1013.000000	63.471449
1012.000000	63.377062
1011.000000	63.332228
1010.000000	63.242346
1009.000000	63.191827
1008.000000	63.125756
1007.000000	63.055394
1006.000000	63.013778
1005.000000	62.948780
1004.000000	62.895365
1003.000000	62.843774
1002.000000	62.801514
1001.000000	62.751854
1000.000000	62.686212
999.000000	62.636444
998.000000	62.591288
997.000000	62.539482
996.000000	62.489715
995.000000	62.448527
994.000000	62.409164
993.000000	62.362185
992.000000	62.320032
991.000000	62.286353
990.000000	62.248491
989.000000	62.204944
988.000000	62.181776
987.000000	62.150779
986.000000	62.102941
985.000000	62.085458
984.000000	62.051779
983.000000	62.030113
982.000000	62.008983
981.000000	61.990642
980.000000	61.968225
979.000000	61.944843
978.000000	61.921568
977.000000	61.919530
976.000000	61.885529
975.000000	61.872443
974.000000	61.864935
973.000000	61.832329
972.000000	61.813022
971.000000	61.817098
970.000000	61.800580
969.000000	61.798221
968.000000	61.794681
967.000000	61.761324
966.000000	61.761753
965.000000	61.786208
964.000000	61.791249
963.000000	61.789426
962.000000	61.798113
961.000000	61.819994
960.000000	61.845414
959.000000	61.852708
958.000000	61.856033
957.000000	61.865901
956.000000	61.895826
955.000000	61.927360
954.000000	61.960395
953.000000	61.977235
952.000000	61.974446
951.000000	61.999544
950.000000	62.032258
949.000000	62.057249
948.000000	62.082991
947.000000	62.107661
946.000000	62.105730
945.000000	62.104979
944.000000	62.102941
943.000000	62.112166
942.000000	62.099402
941.000000	62.082670
940.000000	62.094682
939.000000	62.083420
938.000000	62.063256
937.000000	62.042340
936.000000	62.027968
935.000000	62.036763
934.000000	62.021425
933.000000	61.994611
932.000000	61.986352
931.000000	61.977771
930.000000	61.979165
929.000000	61.952780
928.000000	61.913094
927.000000	61.889498
926.000000	61.891214
925.000000	61.873731
924.000000	61.835010
923.000000	61.805193
922.000000	61.776018
921.000000	61.760680
920.000000	61.754245
919.000000	61.723462
918.000000	61.685385
917.000000	61.646450
916.000000	61.609017
915.000000	61.564934
914.000000	61.529753
913.000000	61.500257
912.000000	61.442016
911.000000	61.398898
910.000000	61.373585
909.000000	61.340121
908.000000	61.314915
907.000000	61.292176
906.000000	61.256567
905.000000	61.257210
904.000000	61.247879
903.000000	61.224389
902.000000	61.213234
901.000000	61.200471
900.000000	61.197896
899.000000	61.203367
898.000000	61.210553
897.000000	61.204117
896.000000	61.179770
895.000000	61.158104
894.000000	61.152634
893.000000	61.156066
892.000000	61.135150
891.000000	61.084632
890.000000	61.055243
889.000000	61.041621
888.000000	61.003759
887.000000	60.964074
886.000000	60.921278
885.000000	60.853490
884.000000	60.799754
883.000000	60.730465
882.000000	60.678767
881.000000	60.597143
880.000000	60.516056
879.000000	60.425315
878.000000	60.321919
877.000000	60.214124
876.000000	60.098285
875.000000	59.912836
874.000000	59.705184
873.000000	59.473935
872.000000	59.230137
871.000000	58.967354
870.000000	58.766782
869.000000	58.674861
868.000000	58.655018
867.000000	58.670356
866.000000	58.701998
865.000000	58.698673
864.000000	58.670464
863.000000	58.665423
862.000000	58.622841
861.000000	58.604714
860.000000	58.558915
859.000000	58.556126
858.000000	58.527167
857.000000	58.062900
856.000000	58.642700
855.000000	58.875900
854.000000	58.537400
853.000000	58.693000
852.000000	58.470400
851.000000	58.409100
850.000000	58.272600
849.000000	58.373300
848.000000	58.251600
847.000000	58.192100
846.000000	58.116700
845.000000	58.073900
844.000000	58.170800
843.000000	58.084500
842.000000	57.928300
841.000000	57.895500
840.000000	58.002700
839.000000	57.993300
838.000000	57.987000
837.000000	57.777600
836.000000	57.548300
835.000000	57.667300
834.000000	57.296000
833.000000	57.176200
832.000000	57.345400
831.000000	57.123300
830.000000	57.137000
829.000000	56.989300
828.000000	56.908700
827.000000	56.765900
826.000000	56.903500
825.000000	56.790200
824.000000	56.516000
823.000000	56.451100
822.000000	56.442100
821.000000	56.369000
820.000000	56.190400
819.000000	55.960200
818.000000	55.807100
817.000000	55.975200
816.000000	55.572900
815.000000	55.404400
814.000000	55.422200
813.000000	55.365200
812.000000	55.044500
811.000000	54.887000
810.000000	54.688400
809.000000	54.572900
808.000000	54.616300
807.000000	54.537500
806.000000	54.245500
805.000000	54.141600
804.000000	53.982000
803.000000	53.682200
802.000000	53.667000
801.000000	53.463000
800.000000	53.279200
799.000000	53.123200
798.000000	52.797600
797.000000	52.872300
796.000000	52.618500
795.000000	52.395700
794.000000	52.233700
793.000000	52.176700
792.000000	52.063600
791.000000	51.831600
790.000000	51.699700
789.000000	51.496400
788.000000	51.297200
787.000000	51.209700
786.000000	51.004400
785.000000	50.822800
784.000000	50.680300
783.000000	50.692500
782.000000	50.469200
781.000000	50.162700
780.000000	50.073000
779.000000	49.905200
778.000000	49.801900
777.000000	49.450700
776.000000	49.427700
775.000000	49.029100
774.000000	48.897900
773.000000	48.769900
772.000000	48.599500
771.000000	48.321700
770.000000	48.200500
769.000000	48.055300
768.000000	47.810800
767.000000	47.557400
766.000000	47.476800
765.000000	47.391400
764.000000	47.107200
763.000000	46.858700
762.000000	46.644100
761.000000	46.458900
760.000000	46.294200
759.000000	46.054100
758.000000	45.844900
757.000000	45.603400
756.000000	45.326500
755.000000	45.124800
754.000000	44.992500
753.000000	44.793500
752.000000	44.522900
751.000000	44.270300
750.000000	44.044400
749.000000	43.901400
748.000000	43.683200
747.000000	43.430400
746.000000	43.198400
745.000000	43.030800
744.000000	42.806500
743.000000	42.573400
742.000000	42.288500
741.000000	42.119500
740.000000	41.827100
739.000000	41.620900
738.000000	41.414100
737.000000	41.158000
736.000000	40.852100
735.000000	40.604800
734.000000	40.373400
733.000000	40.097900
732.000000	39.839600
731.000000	39.661400
730.000000	39.412900
729.000000	39.229000
728.000000	38.988000
727.000000	38.719700
726.000000	38.469700
725.000000	38.218900
724.000000	37.905000
723.000000	37.701000
722.000000	37.426400
721.000000	37.185100
720.000000	36.919200
719.000000	36.661100
718.000000	36.421700
717.000000	36.196100
716.000000	35.919900
715.000000	35.682400
714.000000	35.483200
713.000000	35.228100
712.000000	34.985300
711.000000	34.720400
710.000000	34.548300
709.000000	34.295500
708.000000	34.054000
707.000000	33.842100
706.000000	33.652500
705.000000	33.408700
704.000000	33.188200
703.000000	32.969300
702.000000	32.737900
701.000000	32.558700
700.000000	32.331300
699.000000	32.134500
698.000000	31.926100
697.000000	31.719400
696.000000	31.529600
695.000000	31.316900
694.000000	31.148000
693.000000	30.958800
692.000000	30.771200
691.000000	30.617500
690.000000	30.415200
689.000000	30.217900
688.000000	30.021100
687.000000	29.879100
686.000000	29.710000
685.000000	29.511400
684.000000	29.325700
683.000000	29.186400
682.000000	29.043400
681.000000	28.861700
680.000000	28.729300
679.000000	28.589200
678.000000	28.450300
677.000000	28.299700
676.000000	28.132300
675.000000	27.987900
674.000000	27.824200
673.000000	27.678200
672.000000	27.554400
671.000000	27.433400
670.000000	27.314300
669.000000	27.190000
668.000000	27.076300
667.000000	26.959600
666.000000	26.843000
665.000000	26.723100
664.000000	26.602800
663.000000	26.497900
662.000000	26.379700
661.000000	26.265300
660.000000	26.174500
659.000000	26.066000
658.000000	25.968500
657.000000	25.879200
656.000000	25.809200
655.000000	25.728300
654.000000	25.630700
653.000000	25.549500
652.000000	25.467000
651.000000	25.399100
650.000000	25.311800
649.000000	25.237700
648.000000	25.173300
647.000000	25.103600
646.000000	25.051400
645.000000	24.986400
644.000000	24.925500
643.000000	24.864900
642.000000	24.817900
641.000000	24.777600
640.000000	24.716800
639.000000	24.683400
638.000000	24.665600
637.000000	24.623700
636.000000	24.569000
635.000000	24.524600
634.000000	24.486900
633.000000	24.448500
632.000000	24.426100
631.000000	24.395700
630.000000	24.374200
629.000000	24.355900
628.000000	24.323600
627.000000	24.302100
626.000000	24.274100
625.000000	24.266700
624.000000	24.254800
623.000000	24.225300
622.000000	24.198600
621.000000	24.178400
620.000000	24.177500
619.000000	24.175800
618.000000	24.162100
617.000000	24.143900
616.000000	24.136500
615.000000	24.128500
614.000000	24.112500
613.000000	24.109900
612.000000	24.102100
611.000000	24.085600
610.000000	24.058700
609.000000	24.033700
608.000000	24.018500
607.000000	23.995500
606.000000	23.972500
605.000000	23.937200
604.000000	23.927700
603.000000	23.899200
602.000000	23.875900
601.000000	23.832800
600.000000	23.809600
599.000000	23.773800
598.000000	23.741800
597.000000	23.686500
596.000000	23.632300
595.000000	23.582700
594.000000	23.531100
593.000000	23.498100
592.000000	23.442700
591.000000	23.380300
590.000000	23.338300
589.000000	23.262800
588.000000	23.203700
587.000000	23.144100
586.000000	23.071800
585.000000	22.993300
584.000000	22.906700
583.000000	22.824100
582.000000	22.736100
581.000000	22.651900
580.000000	22.569700
579.000000	22.467300
578.000000	22.365600
577.000000	22.281300
576.000000	22.176100
575.000000	22.077100
574.000000	21.969600
573.000000	21.838300
572.000000	21.739000
571.000000	21.607500
570.000000	21.472700
569.000000	21.352000
568.000000	21.222700
567.000000	21.074100
566.000000	20.925100
565.000000	20.798500
564.000000	20.652900
563.000000	20.510000
562.000000	20.367700
561.000000	20.208600
560.000000	20.053500
559.000000	19.886500
558.000000	19.718400
557.000000	19.546000
556.000000	19.381700
555.000000	19.224000
554.000000	19.024600
553.000000	18.850700
552.000000	18.691100
551.000000	18.520900
550.000000	18.346000
549.000000	18.156100
548.000000	17.960500
547.000000	17.783700
546.000000	17.598400
545.000000	17.415800
544.000000	17.229800
543.000000	17.046100
542.000000	16.863600
541.000000	16.677200
540.000000	16.490500
539.000000	16.321400
538.000000	16.156200
537.000000	15.974700
536.000000	15.791600
535.000000	15.610100
534.000000	15.449700
533.000000	15.272500
532.000000	15.099700
531.000000	14.939800
530.000000	14.770000
529.000000	14.603500
528.000000	14.444200
527.000000	14.282600
526.000000	14.128900
525.000000	13.994500
524.000000	13.831800
523.000000	13.683000
522.000000	13.549200
521.000000	13.381800
520.000000	13.248900
519.000000	13.115600
518.000000	12.977900
517.000000	12.864800
516.000000	12.736700
515.000000	12.615700
514.000000	12.487900
513.000000	12.376600
512.000000	12.267100
511.000000	12.167800
510.000000	12.055700
509.000000	11.956500
508.000000	11.879100
507.000000	11.767700
506.000000	11.694700
505.000000	11.589000
504.000000	11.504100
503.000000	11.432200
502.000000	11.358100
501.000000	11.284900
500.000000	11.210300
499.000000	11.149700
498.000000	11.085800
497.000000	10.999500
496.000000	10.953600
495.000000	10.888500
494.000000	10.833600
493.000000	10.785500
492.000000	10.740800
491.000000	10.681600
490.000000	10.616100
489.000000	10.557100
488.000000	10.514200
487.000000	10.466800
486.000000	10.450000
485.000000	10.387800
484.000000	10.326400
483.000000	10.283600
482.000000	10.243500
481.000000	10.167100
480.000000	10.119000
479.000000	10.062000
478.000000	10.015100
477.000000	9.976200
476.000000	9.927600
475.000000	9.881700
474.000000	9.830600
473.000000	9.792900
472.000000	9.747900
471.000000	9.688800
470.000000	9.649900
469.000000	9.610800
468.000000	9.576900
467.000000	9.539700
466.000000	9.505800
465.000000	9.480900
464.000000	9.463600
463.000000	9.422800
462.000000	9.381000
461.000000	9.355800
460.000000	9.349800
459.000000	9.307900
458.000000	9.302600
457.000000	9.299000
456.000000	9.275900
455.000000	9.246400
454.000000	9.241700
453.000000	9.221100
452.000000	9.203200
451.000000	9.189000
450.000000	9.201400
449.000000	9.153200
448.000000	9.167600
447.000000	9.147100
446.000000	9.149900
445.000000	9.130900
444.000000	9.132500
443.000000	9.113200
442.000000	9.087400
441.000000	9.056700
440.000000	9.057300
439.000000	9.052800
438.000000	9.021800
437.000000	8.989100
436.000000	8.970600
435.000000	8.956800
434.000000	8.919000
433.000000	8.896000
432.000000	8.861000
431.000000	8.843800
430.000000	8.811400
429.000000	8.771800
428.000000	8.732900
427.000000	8.713200
426.000000	8.673000
425.000000	8.624700
424.000000	8.589100
423.000000	8.542700
422.000000	8.496700
421.000000	8.444900
420.000000	8.381300
419.000000	8.338000
418.000000	8.274100
417.000000	8.217800
416.000000	8.164400
415.000000	8.111000
414.000000	8.041200
413.000000	7.979600
412.000000	7.910500
411.000000	7.829000
410.000000	7.761200
409.000000	7.686200
408.000000	7.602500
407.000000	7.524300
406.000000	7.462700
405.000000	7.374600
404.000000	7.286800
403.000000	7.225500
402.000000	7.129400
401.000000	7.047300
400.000000	6.979200
399.000000	6.882400
398.000000	6.797000
397.000000	6.695300
396.000000	6.622500
395.000000	6.558000
394.000000	6.462800
393.000000	6.394000
392.000000	6.309100
391.000000	6.219600
390.000000	6.129600
389.000000	6.035800
388.000000	5.956400
387.000000	5.879400
386.000000	5.802100
385.000000	5.725000
384.000000	5.660300
383.000000	5.587600
382.000000	5.514000
381.000000	5.432000
380.000000	5.387400
379.000000	5.333000
378.000000	5.251000
377.000000	5.186300
376.000000	5.034100
375.000000	4.875500
374.000000	4.951500
373.000000	5.005200
372.000000	4.854200
371.000000	4.584800
370.000000	4.616000
369.000000	4.573700
368.000000	4.606000
367.000000	4.651500
366.000000	4.605500
365.000000	4.494300
364.000000	4.500600
363.000000	4.594000
362.000000	4.568300
361.000000	4.552500
360.000000	4.489800
359.000000	4.443300
358.000000	4.321000
357.000000	4.371200
356.000000	4.450200
355.000000	4.383700
354.000000	4.368600
353.000000	4.379500
352.000000	4.438900
351.000000	4.401400
350.000000	4.354800
349.000000	4.321300
348.000000	4.235000
347.000000	4.214000
346.000000	4.249900
345.000000	4.271600
344.000000	4.266800
343.000000	4.306400
342.000000	4.222200
341.000000	4.149900
340.000000	4.211900
339.000000	4.265600
338.000000	4.262800
337.000000	4.149400
336.000000	4.123400
335.000000	4.202100
334.000000	4.186500
333.000000	4.139700
332.000000	4.130000
331.000000	4.292400
330.000000	4.250000
329.000000	4.158900
328.000000	4.257300
327.000000	4.509600
326.000000	4.609700
325.000000	4.291800
324.000000	3.974200
323.000000	3.924400
322.000000	4.178100
321.000000	4.292100
320.000000	4.579200
319.000000	4.644300
318.000000	4.511600
317.000000	4.759500
316.000000	4.450300
315.000000	4.051000
314.000000	4.047900
313.000000	4.058900
312.000000	4.103900
311.000000	4.080600
310.000000	4.065600
309.000000	4.110200
308.000000	4.104200
307.000000	4.069700
306.000000	4.054300
305.000000	4.119300
304.000000	4.124600
303.000000	4.097600
302.000000	4.093300
301.000000	4.071400
300.000000	4.093400
299.000000	4.082300
298.000000	4.093700
297.000000	4.139100
296.000000	4.125400
295.000000	4.126800
294.000000	4.108500
293.000000	4.095500
292.000000	4.087500
291.000000	4.117500
290.000000	4.132900
289.000000	4.168800
288.000000	4.159900
287.000000	4.132000
286.000000	4.132300
285.000000	4.139800
284.000000	4.146200
283.000000	4.106500
282.000000	4.106300
281.000000	4.118700
280.000000	4.122800
279.000000	4.166200
278.000000	4.144000
277.000000	4.167700
276.000000	4.180300
275.000000	4.200100
274.000000	4.228800
273.000000	4.194800
272.000000	4.195800
271.000000	4.192000
270.000000	4.192900
269.000000	4.226600
268.000000	4.215900
267.000000	4.249200
266.000000	4.264800
265.000000	4.260200
264.000000	4.295900
263.000000	4.311400
262.000000	4.350200
261.000000	4.358400
260.000000	4.383000
259.000000	4.369800
258.000000	4.382500
257.000000	4.382000
256.000000	4.421800
255.000000	4.423500
254.000000	4.390600
253.000000	4.448600
252.000000	4.433200
251.000000	4.427700
250.000000	4.446200
