PE UV       SUBTECH     SPECTRUM    ASCII       PEDS        4.00        
   -1
CICIMAUCR0248-3.ASC
24/06/27
16:03:25.00
24/06/27
16:03:25.00
Vinicio Soto Monge
C. resplendens. Sex F. Ventral
250,000000
1
Lambda 1050
1050L1511233
PerkinElmer UV WinLab 6.3.2.0749 / 2.02.05 Lambda 900 UV/VIS/NIR, Aug  7 2015 09:38:08

0
0
3350/servo 860,8/2
0
0
UV/VIS
1
1
1
DoubleDePol,CommonBeamDepol,RBeamAtt,SBeamAtt,60mm sphere, WB InGaAs Detector
0
0
0
0
Program
Program
3350/servo 860,8/2
3350/0,2 860,8/0,2
3350/0,2 860,8/0,2
0
15.00
 
 
 
0
 
860,8
319,2
860,8
Front
100
on
S:100 R:100
0
0
0
0
 
0
 
 
 
0
 
 
0
0
0
0
0
 
 
 
 
0
0


0
0
#HDR
-1
-1
#GR
nm
%R
1.0
0.0
2500,000000
-1,000000
2251
8
62,298300
4,676600
#DATA
2482.000000	5.771112
2481.000000	5.746715
2480.000000	5.720021
2479.000000	5.748903
2478.000000	5.701531
2477.000000	5.686653
2476.000000	5.708424
2475.000000	5.706455
2474.000000	5.707220
2473.000000	5.747262
2472.000000	5.728445
2471.000000	5.707877
2470.000000	5.740916
2469.000000	5.774941
2468.000000	5.735665
2467.000000	5.701750
2466.000000	5.675056
2465.000000	5.712909
2464.000000	5.748575
2463.000000	5.773519
2462.000000	5.744527
2461.000000	5.791898
2460.000000	5.789601
2459.000000	5.772534
2458.000000	5.774941
2457.000000	5.800213
2456.000000	5.826688
2455.000000	5.842771
2454.000000	5.875154
2453.000000	5.890580
2452.000000	5.897253
2451.000000	5.892658
2450.000000	5.897034
2449.000000	5.949110
2448.000000	5.958409
2447.000000	5.987511
2446.000000	6.041774
2445.000000	6.049980
2444.000000	6.054684
2443.000000	6.072188
2442.000000	6.090349
2441.000000	6.127546
2440.000000	6.160586
2439.000000	6.180716
2438.000000	6.210474
2437.000000	6.230166
2436.000000	6.255985
2435.000000	6.269223
2434.000000	6.303685
2433.000000	6.335959
2432.000000	6.333333
2431.000000	6.339897
2430.000000	6.380048
2429.000000	6.410243
2428.000000	6.420965
2427.000000	6.433984
2426.000000	6.454770
2425.000000	6.476870
2424.000000	6.500173
2423.000000	6.528289
2422.000000	6.553452
2421.000000	6.549404
2420.000000	6.567893
2419.000000	6.569315
2418.000000	6.585179
2417.000000	6.604215
2416.000000	6.628612
2415.000000	6.649617
2414.000000	6.658479
2413.000000	6.654212
2412.000000	6.680140
2411.000000	6.702021
2410.000000	6.721713
2409.000000	6.723573
2408.000000	6.721166
2407.000000	6.747970
2406.000000	6.762192
2405.000000	6.764381
2404.000000	6.799280
2403.000000	6.832757
2402.000000	6.859999
2401.000000	6.878050
2400.000000	6.863390
2399.000000	6.877175
2398.000000	6.894679
2397.000000	6.917435
2396.000000	6.950475
2395.000000	6.958024
2394.000000	6.962400
2393.000000	6.978701
2392.000000	6.997080
2391.000000	7.002113
2390.000000	6.995658
2389.000000	7.025197
2388.000000	7.039638
2387.000000	7.036794
2386.000000	7.047843
2385.000000	7.063050
2384.000000	7.064801
2383.000000	7.073225
2382.000000	7.066332
2381.000000	7.074428
2380.000000	7.081649
2379.000000	7.091276
2378.000000	7.087228
2377.000000	7.075851
2376.000000	7.084603
2375.000000	7.093902
2374.000000	7.100466
2373.000000	7.094887
2372.000000	7.074209
2371.000000	7.079789
2370.000000	7.099700
2369.000000	7.103420
2368.000000	7.077929
2367.000000	7.063926
2366.000000	7.059440
2365.000000	7.053423
2364.000000	7.038325
2363.000000	7.044452
2362.000000	7.051016
2361.000000	7.027057
2360.000000	7.005614
2359.000000	6.991720
2358.000000	6.994345
2357.000000	6.993470
2356.000000	6.979467
2355.000000	6.967213
2354.000000	6.957695
2353.000000	6.960212
2352.000000	6.974215
2351.000000	6.962619
2350.000000	6.948068
2349.000000	6.966229
2348.000000	6.971699
2347.000000	6.988438
2346.000000	6.996862
2345.000000	6.979357
2344.000000	6.981326
2343.000000	7.011522
2342.000000	7.017211
2341.000000	7.035153
2340.000000	7.056814
2339.000000	7.054079
2338.000000	7.063488
2337.000000	7.078039
2336.000000	7.089635
2335.000000	7.086791
2334.000000	7.087994
2333.000000	7.090182
2332.000000	7.101013
2331.000000	7.096199
2330.000000	7.085587
2329.000000	7.081868
2328.000000	7.091276
2327.000000	7.081211
2326.000000	7.074428
2325.000000	7.066332
2324.000000	7.049922
2323.000000	7.045874
2322.000000	7.018742
2321.000000	6.995877
2320.000000	6.975856
2319.000000	6.968636
2318.000000	6.946318
2317.000000	6.900915
2316.000000	6.886255
2315.000000	6.862077
2314.000000	6.828272
2313.000000	6.794795
2312.000000	6.787683
2311.000000	6.761755
2310.000000	6.729809
2309.000000	6.694800
2308.000000	6.670075
2307.000000	6.655525
2306.000000	6.649945
2305.000000	6.642287
2304.000000	6.634082
2303.000000	6.632878
2302.000000	6.641412
2301.000000	6.659135
2300.000000	6.670732
2299.000000	6.688783
2298.000000	6.702240
2297.000000	6.712195
2296.000000	6.734295
2295.000000	6.795342
2294.000000	6.805188
2293.000000	6.836149
2292.000000	6.844026
2291.000000	6.875862
2290.000000	6.908683
2289.000000	6.906495
2288.000000	6.917107
2287.000000	6.932533
2286.000000	6.952116
2285.000000	6.929141
2284.000000	6.935158
2283.000000	6.938440
2282.000000	6.944786
2281.000000	6.934940
2280.000000	6.942707
2279.000000	6.913278
2278.000000	6.902666
2277.000000	6.905729
2276.000000	6.889975
2275.000000	6.894351
2274.000000	6.871705
2273.000000	6.866782
2272.000000	6.843260
2271.000000	6.853434
2270.000000	6.857811
2269.000000	6.855513
2268.000000	6.875753
2267.000000	6.901462
2266.000000	6.917654
2265.000000	6.940738
2264.000000	6.964150
2263.000000	6.999268
2262.000000	7.074209
2261.000000	7.109656
2260.000000	7.183065
2259.000000	7.255381
2258.000000	7.337652
2257.000000	7.430535
2256.000000	7.503835
2255.000000	7.584574
2254.000000	7.691679
2253.000000	7.784781
2252.000000	7.891230
2251.000000	7.977768
2250.000000	8.071089
2249.000000	8.184649
2248.000000	8.239241
2247.000000	8.329608
2246.000000	8.408815
2245.000000	8.482553
2244.000000	8.562855
2243.000000	8.613836
2242.000000	8.693919
2241.000000	8.746104
2240.000000	8.794789
2239.000000	8.832423
2238.000000	8.902441
2237.000000	8.929354
2236.000000	8.954517
2235.000000	9.008453
2234.000000	8.999263
2233.000000	9.059981
2232.000000	9.077705
2231.000000	9.092802
2230.000000	9.105165
2229.000000	9.120700
2228.000000	9.087332
2227.000000	9.119825
2226.000000	9.116980
2225.000000	9.108337
2224.000000	9.097178
2223.000000	9.106149
2222.000000	9.066545
2221.000000	9.044446
2220.000000	9.061513
2219.000000	9.034381
2218.000000	9.041930
2217.000000	9.017533
2216.000000	9.006702
2215.000000	8.967426
2214.000000	8.936794
2213.000000	8.921587
2212.000000	8.891610
2211.000000	8.885921
2210.000000	8.849600
2209.000000	8.851569
2208.000000	8.836690
2207.000000	8.812621
2206.000000	8.806823
2205.000000	8.768094
2204.000000	8.787130
2203.000000	8.772908
2202.000000	8.746542
2201.000000	8.750699
2200.000000	8.754528
2199.000000	8.732101
2198.000000	8.718316
2197.000000	8.709236
2196.000000	8.705625
2195.000000	8.693810
2194.000000	8.689434
2193.000000	8.689543
2192.000000	8.684182
2191.000000	8.670179
2190.000000	8.676087
2189.000000	8.670398
2188.000000	8.648189
2187.000000	8.650377
2186.000000	8.649611
2185.000000	8.643047
2184.000000	8.615477
2183.000000	8.602240
2182.000000	8.613508
2181.000000	8.582109
2180.000000	8.596551
2179.000000	8.585939
2178.000000	8.579046
2177.000000	8.566027
2176.000000	8.566902
2175.000000	8.564714
2174.000000	8.547101
2173.000000	8.543490
2172.000000	8.552242
2171.000000	8.546007
2170.000000	8.553993
2169.000000	8.560885
2168.000000	8.555415
2167.000000	8.558150
2166.000000	8.572263
2165.000000	8.570950
2164.000000	8.588017
2163.000000	8.607053
2162.000000	8.608257
2161.000000	8.630247
2160.000000	8.634842
2159.000000	8.651580
2158.000000	8.662411
2157.000000	8.684401
2156.000000	8.724990
2155.000000	8.730241
2154.000000	8.768204
2153.000000	8.793148
2152.000000	8.790522
2151.000000	8.824437
2150.000000	8.854413
2149.000000	8.882639
2148.000000	8.905067
2147.000000	8.947843
2146.000000	8.967426
2145.000000	8.993246
2144.000000	9.022784
2143.000000	9.047509
2142.000000	9.063045
2141.000000	9.086566
2140.000000	9.111838
2139.000000	9.141486
2138.000000	9.159319
2137.000000	9.197172
2136.000000	9.226930
2135.000000	9.244216
2134.000000	9.245638
2133.000000	9.270582
2132.000000	9.280537
2131.000000	9.299245
2130.000000	9.316859
2129.000000	9.329003
2128.000000	9.335458
2127.000000	9.349243
2126.000000	9.359526
2125.000000	9.363465
2124.000000	9.354166
2123.000000	9.363355
2122.000000	9.372217
2121.000000	9.374843
2120.000000	9.382173
2119.000000	9.375499
2118.000000	9.383704
2117.000000	9.379985
2116.000000	9.378015
2115.000000	9.366091
2114.000000	9.353619
2113.000000	9.343225
2112.000000	9.341366
2111.000000	9.335458
2110.000000	9.317844
2109.000000	9.319047
2108.000000	9.321782
2107.000000	9.296401
2106.000000	9.289727
2105.000000	9.292572
2104.000000	9.276161
2103.000000	9.266206
2102.000000	9.259423
2101.000000	9.230759
2100.000000	9.210848
2099.000000	9.209316
2098.000000	9.197829
2097.000000	9.186342
2096.000000	9.179121
2095.000000	9.167306
2094.000000	9.151223
2093.000000	9.138861
2092.000000	9.142252
2091.000000	9.143346
2090.000000	9.129999
2089.000000	9.117090
2088.000000	9.110744
2087.000000	9.105930
2086.000000	9.095209
2085.000000	9.080549
2084.000000	9.064904
2083.000000	9.059215
2082.000000	9.046087
2081.000000	9.026285
2080.000000	9.015564
2079.000000	9.002107
2078.000000	8.977492
2077.000000	8.949922
2076.000000	8.921477
2075.000000	8.890297
2074.000000	8.868636
2073.000000	8.840519
2072.000000	8.810652
2071.000000	8.779253
2070.000000	8.737680
2069.000000	8.718097
2068.000000	8.687574
2067.000000	8.648955
2066.000000	8.611976
2065.000000	8.571716
2064.000000	8.533316
2063.000000	8.506403
2062.000000	8.501370
2061.000000	8.471941
2060.000000	8.438792
2059.000000	8.416473
2058.000000	8.404658
2057.000000	8.371181
2056.000000	8.344268
2055.000000	8.342517
2054.000000	8.343064
2053.000000	8.344268
2052.000000	8.345143
2051.000000	8.358271
2050.000000	8.361225
2049.000000	8.378511
2048.000000	8.415379
2047.000000	8.437369
2046.000000	8.476754
2045.000000	8.509575
2044.000000	8.536160
2043.000000	8.585610
2042.000000	8.620072
2041.000000	8.646110
2040.000000	8.697748
2039.000000	8.726084
2038.000000	8.768641
2037.000000	8.822577
2036.000000	8.835268
2035.000000	8.863712
2034.000000	8.908130
2033.000000	8.920493
2032.000000	8.941826
2031.000000	8.975960
2030.000000	9.003748
2029.000000	9.014688
2028.000000	9.039195
2027.000000	9.065889
2026.000000	9.075516
2025.000000	9.082299
2024.000000	9.093787
2023.000000	9.110744
2022.000000	9.124420
2021.000000	9.123544
2020.000000	9.127592
2019.000000	9.115667
2018.000000	9.136454
2017.000000	9.135797
2016.000000	9.125514
2015.000000	9.130109
2014.000000	9.137986
2013.000000	9.127155
2012.000000	9.113807
2011.000000	9.118731
2010.000000	9.128358
2009.000000	9.099913
2008.000000	9.073110
2007.000000	9.064139
2006.000000	9.039632
2005.000000	9.009437
2004.000000	9.004405
2003.000000	9.001779
2002.000000	8.967536
2001.000000	8.932199
2000.000000	8.930339
1999.000000	8.891063
1998.000000	8.864807
1997.000000	8.831329
1996.000000	8.802447
1995.000000	8.799931
1994.000000	8.761421
1993.000000	8.714049
1992.000000	8.684729
1991.000000	8.666897
1990.000000	8.627621
1989.000000	8.581015
1988.000000	8.565152
1987.000000	8.513295
1986.000000	8.469534
1985.000000	8.436166
1984.000000	8.412973
1983.000000	8.362866
1982.000000	8.332014
1981.000000	8.300725
1980.000000	8.266154
1979.000000	8.245914
1978.000000	8.198434
1977.000000	8.151390
1976.000000	8.118022
1975.000000	8.082685
1974.000000	8.046145
1973.000000	8.025577
1972.000000	7.972954
1971.000000	7.959607
1970.000000	7.923176
1969.000000	7.884447
1968.000000	7.859285
1967.000000	7.817274
1966.000000	7.801629
1965.000000	7.798347
1964.000000	7.754695
1963.000000	7.723516
1962.000000	7.685006
1961.000000	7.659077
1960.000000	7.640479
1959.000000	7.610174
1958.000000	7.575494
1957.000000	7.549565
1956.000000	7.515650
1955.000000	7.507007
1954.000000	7.491144
1953.000000	7.440162
1952.000000	7.419376
1951.000000	7.394213
1950.000000	7.381194
1949.000000	7.363471
1948.000000	7.367409
1947.000000	7.311395
1946.000000	7.314349
1945.000000	7.288420
1944.000000	7.264242
1943.000000	7.245972
1942.000000	7.238423
1941.000000	7.235360
1940.000000	7.225076
1939.000000	7.201773
1938.000000	7.205712
1937.000000	7.209869
1936.000000	7.216433
1935.000000	7.210525
1934.000000	7.197725
1933.000000	7.227155
1932.000000	7.211729
1931.000000	7.261726
1930.000000	7.268071
1929.000000	7.287107
1928.000000	7.324742
1927.000000	7.319163
1926.000000	7.367847
1925.000000	7.368394
1924.000000	7.406138
1923.000000	7.434364
1922.000000	7.481735
1921.000000	7.534358
1920.000000	7.545408
1919.000000	7.600766
1918.000000	7.660937
1917.000000	7.707105
1916.000000	7.760166
1915.000000	7.847469
1914.000000	7.922848
1913.000000	8.001946
1912.000000	8.055335
1911.000000	8.129838
1910.000000	8.221080
1909.000000	8.304554
1908.000000	8.389123
1907.000000	8.488570
1906.000000	8.606288
1905.000000	8.714706
1904.000000	8.836799
1903.000000	8.985259
1902.000000	9.127264
1901.000000	9.247498
1900.000000	9.391363
1899.000000	9.545183
1898.000000	9.726026
1897.000000	9.915512
1896.000000	10.102153
1895.000000	10.285622
1894.000000	10.453008
1893.000000	10.634508
1892.000000	10.852001
1891.000000	11.078465
1890.000000	11.376697
1889.000000	11.637076
1888.000000	11.867697
1887.000000	12.145799
1886.000000	12.422807
1885.000000	12.722024
1884.000000	13.055265
1883.000000	13.392883
1882.000000	13.775136
1881.000000	14.110784
1880.000000	14.478269
1879.000000	14.806915
1878.000000	15.151315
1877.000000	15.495059
1876.000000	15.847336
1875.000000	16.215039
1874.000000	16.575194
1873.000000	16.930972
1872.000000	17.279639
1871.000000	17.624477
1870.000000	17.974238
1869.000000	18.288005
1868.000000	18.591161
1867.000000	18.844428
1866.000000	19.096712
1865.000000	19.275585
1864.000000	19.485092
1863.000000	19.640772
1862.000000	19.768773
1861.000000	19.960338
1860.000000	20.154090
1859.000000	20.311959
1858.000000	20.471687
1857.000000	20.607675
1856.000000	20.718609
1855.000000	20.802412
1854.000000	20.883589
1853.000000	20.964109
1852.000000	21.036753
1851.000000	21.065963
1850.000000	21.110819
1849.000000	21.133137
1848.000000	21.163660
1847.000000	21.209500
1846.000000	21.255559
1845.000000	21.270437
1844.000000	21.240023
1843.000000	21.218252
1842.000000	21.205343
1841.000000	21.234225
1840.000000	21.267265
1839.000000	21.259825
1838.000000	21.224816
1837.000000	21.217377
1836.000000	21.186963
1835.000000	21.182149
1834.000000	21.158300
1833.000000	21.103051
1832.000000	21.058524
1831.000000	21.018154
1830.000000	20.983802
1829.000000	20.955138
1828.000000	20.921442
1827.000000	20.867178
1826.000000	20.811821
1825.000000	20.774952
1824.000000	20.723314
1823.000000	20.669487
1822.000000	20.628790
1821.000000	20.622335
1820.000000	20.643012
1819.000000	20.629446
1818.000000	20.591155
1817.000000	20.551879
1816.000000	20.533937
1815.000000	20.516433
1814.000000	20.478798
1813.000000	20.453636
1812.000000	20.444883
1811.000000	20.434052
1810.000000	20.412172
1809.000000	20.373334
1808.000000	20.329026
1807.000000	20.297518
1806.000000	20.265681
1805.000000	20.220279
1804.000000	20.173783
1803.000000	20.140415
1802.000000	20.110767
1801.000000	20.076305
1800.000000	20.031340
1799.000000	19.980906
1798.000000	19.926970
1797.000000	19.882771
1796.000000	19.832446
1795.000000	19.790545
1794.000000	19.757833
1793.000000	19.720417
1792.000000	19.681142
1791.000000	19.638256
1790.000000	19.601387
1789.000000	19.564956
1788.000000	19.537168
1787.000000	19.496032
1786.000000	19.453693
1785.000000	19.408291
1784.000000	19.368031
1783.000000	19.329411
1782.000000	19.278977
1781.000000	19.231386
1780.000000	19.171324
1779.000000	19.112466
1778.000000	19.079754
1777.000000	19.023193
1776.000000	18.967288
1775.000000	18.923089
1774.000000	18.853071
1773.000000	18.788633
1772.000000	18.720913
1771.000000	18.651442
1770.000000	18.588207
1769.000000	18.518189
1768.000000	18.444233
1767.000000	18.383624
1766.000000	18.322358
1765.000000	18.253653
1764.000000	18.214158
1763.000000	18.179259
1762.000000	18.167662
1761.000000	18.162083
1760.000000	18.183307
1759.000000	18.208907
1758.000000	18.237680
1757.000000	18.283082
1756.000000	18.329797
1755.000000	18.390078
1754.000000	18.441607
1753.000000	18.489635
1752.000000	18.516001
1751.000000	18.522346
1750.000000	18.534162
1749.000000	18.536131
1748.000000	18.518736
1747.000000	18.501888
1746.000000	18.479789
1745.000000	18.434168
1744.000000	18.391719
1743.000000	18.318419
1742.000000	18.226849
1741.000000	18.113727
1740.000000	18.004324
1739.000000	17.883324
1738.000000	17.743835
1737.000000	17.607629
1736.000000	17.485754
1735.000000	17.367380
1734.000000	17.285328
1733.000000	17.228438
1732.000000	17.183911
1731.000000	17.181395
1730.000000	17.171221
1729.000000	17.190694
1728.000000	17.215091
1727.000000	17.265417
1726.000000	17.321321
1725.000000	17.393090
1724.000000	17.443415
1723.000000	17.500633
1722.000000	17.561023
1721.000000	17.617256
1720.000000	17.668894
1719.000000	17.725346
1718.000000	17.785409
1717.000000	17.868774
1716.000000	17.941636
1715.000000	18.023032
1714.000000	18.130137
1713.000000	18.231663
1712.000000	18.321701
1711.000000	18.384827
1710.000000	18.452876
1709.000000	18.527598
1708.000000	18.553417
1707.000000	18.542367
1706.000000	18.568733
1705.000000	18.549806
1704.000000	18.518845
1703.000000	18.500356
1702.000000	18.465785
1701.000000	18.391391
1700.000000	18.306494
1699.000000	18.222582
1698.000000	18.116024
1697.000000	18.006840
1696.000000	17.919099
1695.000000	17.844814
1694.000000	17.791097
1693.000000	17.779610
1692.000000	17.784971
1691.000000	17.854770
1690.000000	17.903235
1689.000000	17.987804
1688.000000	18.075764
1687.000000	18.164490
1686.000000	18.216018
1685.000000	18.288224
1684.000000	18.370605
1683.000000	18.464910
1682.000000	18.589739
1681.000000	18.777146
1680.000000	19.044198
1679.000000	19.318471
1678.000000	19.652697
1677.000000	20.012633
1676.000000	20.366223
1675.000000	20.720141
1674.000000	21.020890
1673.000000	21.289145
1672.000000	21.552369
1671.000000	21.794806
1670.000000	21.998514
1669.000000	22.177169
1668.000000	22.342148
1667.000000	22.477480
1666.000000	22.619594
1665.000000	22.746501
1664.000000	22.858092
1663.000000	22.926141
1662.000000	23.034340
1661.000000	23.117815
1660.000000	23.189692
1659.000000	23.218794
1658.000000	23.280606
1657.000000	23.359595
1656.000000	23.357735
1655.000000	23.389024
1654.000000	23.409592
1653.000000	23.392088
1652.000000	23.413421
1651.000000	23.386399
1650.000000	23.387055
1649.000000	23.354015
1648.000000	23.347123
1647.000000	23.293625
1646.000000	23.266384
1645.000000	23.225467
1644.000000	23.179408
1643.000000	23.140680
1642.000000	23.115298
1641.000000	23.043968
1640.000000	23.018805
1639.000000	22.969574
1638.000000	22.909293
1637.000000	22.861046
1636.000000	22.807329
1635.000000	22.768163
1634.000000	22.706679
1633.000000	22.611717
1632.000000	22.569269
1631.000000	22.494656
1630.000000	22.422231
1629.000000	22.343899
1628.000000	22.280773
1627.000000	22.216772
1626.000000	22.148505
1625.000000	22.061420
1624.000000	21.994685
1623.000000	21.922698
1622.000000	21.844584
1621.000000	21.781787
1620.000000	21.725663
1619.000000	21.646018
1618.000000	21.572389
1617.000000	21.504450
1616.000000	21.428087
1615.000000	21.377105
1614.000000	21.322294
1613.000000	21.247682
1612.000000	21.220440
1611.000000	21.144515
1610.000000	21.071871
1609.000000	20.992882
1608.000000	20.932383
1607.000000	20.866303
1606.000000	20.797161
1605.000000	20.718719
1604.000000	20.660298
1603.000000	20.586888
1602.000000	20.508556
1601.000000	20.436787
1600.000000	20.357033
1599.000000	20.289859
1598.000000	20.217872
1597.000000	20.127068
1596.000000	20.077727
1595.000000	19.994690
1594.000000	19.941958
1593.000000	19.899619
1592.000000	19.833212
1591.000000	19.759037
1590.000000	19.702038
1589.000000	19.646023
1588.000000	19.582789
1587.000000	19.513646
1586.000000	19.470760
1585.000000	19.408400
1584.000000	19.357309
1583.000000	19.308734
1582.000000	19.257206
1581.000000	19.193642
1580.000000	19.142661
1579.000000	19.092773
1578.000000	19.064438
1577.000000	19.032492
1576.000000	19.007111
1575.000000	18.979760
1574.000000	18.937859
1573.000000	18.915322
1572.000000	18.879547
1571.000000	18.858979
1570.000000	18.852305
1569.000000	18.811936
1568.000000	18.782397
1567.000000	18.773317
1566.000000	18.772988
1565.000000	18.749467
1564.000000	18.736995
1563.000000	18.740933
1562.000000	18.718615
1561.000000	18.685247
1560.000000	18.676604
1559.000000	18.647613
1558.000000	18.618949
1557.000000	18.601554
1556.000000	18.570155
1555.000000	18.508671
1554.000000	18.475303
1553.000000	18.443357
1552.000000	18.414585
1551.000000	18.376950
1550.000000	18.320826
1549.000000	18.266672
1548.000000	18.210329
1547.000000	18.179040
1546.000000	18.127183
1545.000000	18.075436
1544.000000	18.038895
1543.000000	18.004433
1542.000000	17.977739
1541.000000	17.940870
1540.000000	17.893499
1539.000000	17.856849
1538.000000	17.830701
1537.000000	17.789675
1536.000000	17.760465
1535.000000	17.723815
1534.000000	17.669988
1533.000000	17.633120
1532.000000	17.604456
1531.000000	17.565509
1530.000000	17.513433
1529.000000	17.463217
1528.000000	17.425692
1527.000000	17.376023
1526.000000	17.319680
1525.000000	17.255023
1524.000000	17.198790
1523.000000	17.158311
1522.000000	17.110612
1521.000000	17.071664
1520.000000	17.021667
1519.000000	16.957119
1518.000000	16.893775
1517.000000	16.822226
1516.000000	16.769056
1515.000000	16.718074
1514.000000	16.663044
1513.000000	16.604404
1512.000000	16.547843
1511.000000	16.490954
1510.000000	16.431001
1509.000000	16.368204
1508.000000	16.315143
1507.000000	16.254315
1506.000000	16.182219
1505.000000	16.119531
1504.000000	16.065923
1503.000000	16.004111
1502.000000	15.938141
1501.000000	15.884643
1500.000000	15.836177
1499.000000	15.788806
1498.000000	15.731698
1497.000000	15.679512
1496.000000	15.648770
1495.000000	15.607635
1494.000000	15.550745
1493.000000	15.510047
1492.000000	15.455674
1491.000000	15.421978
1490.000000	15.405458
1489.000000	15.371543
1488.000000	15.335768
1487.000000	15.300650
1486.000000	15.277457
1485.000000	15.251528
1484.000000	15.220348
1483.000000	15.188403
1482.000000	15.163897
1481.000000	15.166194
1480.000000	15.157004
1479.000000	15.128669
1478.000000	15.110070
1477.000000	15.096395
1476.000000	15.091362
1475.000000	15.062152
1474.000000	15.064887
1473.000000	15.066090
1472.000000	15.074843
1471.000000	15.065872
1470.000000	15.070904
1469.000000	15.065106
1468.000000	15.074186
1467.000000	15.084689
1466.000000	15.084251
1465.000000	15.113134
1464.000000	15.123417
1463.000000	15.132936
1462.000000	15.148908
1461.000000	15.160067
1460.000000	15.182495
1459.000000	15.210393
1458.000000	15.241901
1457.000000	15.255467
1456.000000	15.286537
1455.000000	15.329642
1454.000000	15.384125
1453.000000	15.431715
1452.000000	15.488276
1451.000000	15.539477
1450.000000	15.600742
1449.000000	15.648989
1448.000000	15.688483
1447.000000	15.732901
1446.000000	15.808280
1445.000000	15.870967
1444.000000	15.919870
1443.000000	15.972821
1442.000000	16.043496
1441.000000	16.109137
1440.000000	16.205631
1439.000000	16.278493
1438.000000	16.356279
1437.000000	16.427281
1436.000000	16.507911
1435.000000	16.597403
1434.000000	16.670812
1433.000000	16.784372
1432.000000	16.892025
1431.000000	16.976265
1430.000000	17.077134
1429.000000	17.199994
1428.000000	17.323510
1427.000000	17.451839
1426.000000	17.580825
1425.000000	17.726878
1424.000000	17.861991
1423.000000	18.036707
1422.000000	18.214377
1421.000000	18.351678
1420.000000	18.552870
1419.000000	18.748373
1418.000000	18.965428
1417.000000	19.189048
1416.000000	19.379737
1415.000000	19.582132
1414.000000	19.849185
1413.000000	20.140853
1412.000000	20.382414
1411.000000	20.629774
1410.000000	20.945073
1409.000000	21.274704
1408.000000	21.612759
1407.000000	21.971929
1406.000000	22.320596
1405.000000	22.670794
1404.000000	23.113986
1403.000000	23.472718
1402.000000	23.884948
1401.000000	24.280111
1400.000000	24.763234
1399.000000	25.243732
1398.000000	25.675435
1397.000000	25.996642
1396.000000	26.361282
1395.000000	26.888823
1394.000000	27.424787
1393.000000	27.802337
1392.000000	28.230759
1391.000000	28.741123
1390.000000	29.253019
1389.000000	29.729906
1388.000000	30.249570
1387.000000	30.880168
1386.000000	31.504312
1385.000000	32.133597
1384.000000	32.702492
1383.000000	33.356721
1382.000000	34.046835
1381.000000	34.700189
1380.000000	35.288011
1379.000000	35.666982
1378.000000	36.110939
1377.000000	36.446806
1376.000000	36.730269
1375.000000	37.032768
1374.000000	37.318856
1373.000000	37.601991
1372.000000	37.936983
1371.000000	38.294621
1370.000000	38.680157
1369.000000	39.035278
1368.000000	39.349155
1367.000000	39.679114
1366.000000	39.983473
1365.000000	40.235537
1364.000000	40.502809
1363.000000	40.726975
1362.000000	40.916461
1361.000000	41.150255
1360.000000	41.385580
1359.000000	41.541151
1358.000000	41.648913
1357.000000	41.778665
1356.000000	41.932157
1355.000000	42.127879
1354.000000	42.427534
1353.000000	42.782874
1352.000000	43.104190
1351.000000	43.537535
1350.000000	44.004467
1349.000000	44.442625
1348.000000	44.885269
1347.000000	45.317630
1346.000000	45.749443
1345.000000	46.104346
1344.000000	46.470517
1343.000000	46.887452
1342.000000	47.270799
1341.000000	47.616075
1340.000000	48.007409
1339.000000	48.355201
1338.000000	48.738220
1337.000000	49.088966
1336.000000	49.432053
1335.000000	49.802929
1334.000000	50.144485
1333.000000	50.488995
1332.000000	50.830222
1331.000000	51.152523
1330.000000	51.488281
1329.000000	51.818896
1328.000000	52.122489
1327.000000	52.421925
1326.000000	52.720923
1325.000000	53.012701
1324.000000	53.311261
1323.000000	53.557527
1322.000000	53.827314
1321.000000	54.087365
1320.000000	54.338226
1319.000000	54.564471
1318.000000	54.796515
1317.000000	55.010944
1316.000000	55.237846
1315.000000	55.456870
1314.000000	55.652702
1313.000000	55.848752
1312.000000	56.043270
1311.000000	56.242493
1310.000000	56.403424
1309.000000	56.580766
1308.000000	56.731961
1307.000000	56.867074
1306.000000	57.005578
1305.000000	57.128000
1304.000000	57.270333
1303.000000	57.362997
1302.000000	57.466054
1301.000000	57.566267
1300.000000	57.645256
1299.000000	57.718775
1298.000000	57.794372
1297.000000	57.863843
1296.000000	57.911105
1295.000000	57.972590
1294.000000	58.022696
1293.000000	58.063394
1292.000000	58.109015
1291.000000	58.132318
1290.000000	58.145118
1289.000000	58.167874
1288.000000	58.175642
1287.000000	58.178048
1286.000000	58.165795
1285.000000	58.158137
1284.000000	58.124550
1283.000000	58.079476
1282.000000	58.051907
1281.000000	58.030464
1280.000000	57.990860
1279.000000	57.938566
1278.000000	57.884192
1277.000000	57.859577
1276.000000	57.814174
1275.000000	57.780369
1274.000000	57.751049
1273.000000	57.730700
1272.000000	57.691206
1271.000000	57.672498
1270.000000	57.638802
1269.000000	57.616265
1268.000000	57.606637
1267.000000	57.573160
1266.000000	57.533009
1265.000000	57.499751
1264.000000	57.471853
1263.000000	57.429951
1262.000000	57.397240
1261.000000	57.356433
1260.000000	57.301403
1259.000000	57.255344
1258.000000	57.213771
1257.000000	57.167166
1256.000000	57.112245
1255.000000	57.048135
1254.000000	56.991684
1253.000000	56.924729
1252.000000	56.850116
1251.000000	56.778129
1250.000000	56.704501
1249.000000	56.603303
1248.000000	56.505059
1247.000000	56.413270
1246.000000	56.302445
1245.000000	56.188666
1244.000000	56.085499
1243.000000	55.962968
1242.000000	55.827309
1241.000000	55.708388
1240.000000	55.585419
1239.000000	55.453041
1238.000000	55.333464
1237.000000	55.196820
1236.000000	55.061270
1235.000000	54.927032
1234.000000	54.790279
1233.000000	54.656479
1232.000000	54.504518
1231.000000	54.350588
1230.000000	54.202895
1229.000000	54.035399
1228.000000	53.878515
1227.000000	53.718459
1226.000000	53.547899
1225.000000	53.380294
1224.000000	53.200873
1223.000000	53.016858
1222.000000	52.836562
1221.000000	52.653750
1220.000000	52.468859
1219.000000	52.293158
1218.000000	52.124787
1217.000000	51.958166
1216.000000	51.781699
1215.000000	51.613109
1214.000000	51.461368
1213.000000	51.289496
1212.000000	51.139614
1211.000000	51.003188
1210.000000	50.839959
1209.000000	50.680887
1208.000000	50.540961
1207.000000	50.410881
1206.000000	50.284083
1205.000000	50.144376
1204.000000	50.044491
1203.000000	49.954890
1202.000000	49.861679
1201.000000	49.792974
1200.000000	49.711468
1199.000000	49.647577
1198.000000	49.564869
1197.000000	49.465750
1196.000000	49.345406
1195.000000	49.197494
1194.000000	49.011290
1193.000000	48.787233
1192.000000	48.531121
1191.000000	48.212758
1190.000000	47.880939
1189.000000	47.538508
1188.000000	47.195968
1187.000000	46.896970
1186.000000	46.700810
1185.000000	46.576857
1184.000000	46.557493
1183.000000	46.670178
1182.000000	46.859773
1181.000000	47.161834
1180.000000	47.559732
1179.000000	47.993077
1178.000000	48.412090
1177.000000	48.831650
1176.000000	49.223422
1175.000000	49.581498
1174.000000	49.906534
1173.000000	50.222052
1172.000000	50.520722
1171.000000	50.827050
1170.000000	51.144209
1169.000000	51.437080
1168.000000	51.767805
1167.000000	52.096014
1166.000000	52.452448
1165.000000	52.797286
1164.000000	53.155143
1163.000000	53.530286
1162.000000	53.915712
1161.000000	54.308359
1160.000000	54.688862
1159.000000	55.085666
1158.000000	55.479079
1157.000000	55.864943
1156.000000	56.235928
1155.000000	56.581094
1154.000000	56.896284
1153.000000	57.204253
1152.000000	57.468790
1151.000000	57.708819
1150.000000	57.930141
1149.000000	58.118205
1148.000000	58.308238
1147.000000	58.508117
1146.000000	58.717514
1145.000000	58.955903
1144.000000	59.273171
1143.000000	59.597441
1142.000000	59.967333
1141.000000	60.385470
1140.000000	60.828443
1139.000000	61.279948
1138.000000	61.759790
1137.000000	62.259104
1136.000000	62.784676
1135.000000	63.333878
1134.000000	63.911416
1133.000000	64.442239
1132.000000	64.948118
1131.000000	65.392622
1130.000000	65.804414
1129.000000	66.181964
1128.000000	66.527896
1127.000000	66.821314
1126.000000	67.069549
1125.000000	67.278509
1124.000000	67.424233
1123.000000	67.565473
1122.000000	67.709556
1121.000000	67.798172
1120.000000	67.882850
1119.000000	67.941053
1118.000000	67.997286
1117.000000	68.047173
1116.000000	68.066538
1115.000000	68.100124
1114.000000	68.114675
1113.000000	68.126272
1112.000000	68.132179
1111.000000	68.134368
1110.000000	68.133055
1109.000000	68.155482
1108.000000	68.145745
1107.000000	68.131851
1106.000000	68.131632
1105.000000	68.146511
1104.000000	68.156139
1103.000000	68.146183
1102.000000	68.131195
1101.000000	68.148481
1100.000000	68.130101
1099.000000	68.138197
1098.000000	68.129116
1097.000000	68.115660
1096.000000	68.083276
1095.000000	68.082073
1094.000000	68.041047
1093.000000	68.015884
1092.000000	68.006913
1091.000000	67.974421
1090.000000	67.927706
1089.000000	67.879459
1088.000000	67.842371
1087.000000	67.815896
1086.000000	67.756709
1085.000000	67.723779
1084.000000	67.650150
1083.000000	67.614266
1082.000000	67.541623
1081.000000	67.491516
1080.000000	67.452788
1079.000000	67.390537
1078.000000	67.323583
1077.000000	67.250939
1076.000000	67.205099
1075.000000	67.123922
1074.000000	67.079286
1073.000000	67.009487
1072.000000	66.942533
1071.000000	66.853697
1070.000000	66.794729
1069.000000	66.729416
1068.000000	66.653271
1067.000000	66.586426
1066.000000	66.499123
1065.000000	66.435778
1064.000000	66.354164
1063.000000	66.284037
1062.000000	66.199468
1061.000000	66.106147
1060.000000	66.022454
1059.000000	65.916333
1058.000000	65.865023
1057.000000	65.757371
1056.000000	65.669411
1055.000000	65.587578
1054.000000	65.502243
1053.000000	65.406735
1052.000000	65.296019
1051.000000	65.219656
1050.000000	65.128851
1049.000000	65.068242
1048.000000	64.989800
1047.000000	64.880945
1046.000000	64.811036
1045.000000	64.741346
1044.000000	64.645728
1043.000000	64.554814
1042.000000	64.473856
1041.000000	64.407777
1040.000000	64.318395
1039.000000	64.234155
1038.000000	64.145319
1037.000000	64.050795
1036.000000	63.987123
1035.000000	63.882643
1034.000000	63.761534
1033.000000	63.680795
1032.000000	63.618654
1031.000000	63.502687
1030.000000	63.394816
1029.000000	63.263532
1028.000000	63.196031
1027.000000	63.091223
1026.000000	62.966832
1025.000000	62.860711
1024.000000	62.751636
1023.000000	62.650548
1022.000000	62.547162
1021.000000	62.419489
1020.000000	62.311946
1019.000000	62.210748
1018.000000	62.092593
1017.000000	61.972797
1016.000000	61.909781
1015.000000	61.812631
1014.000000	61.717779
1013.000000	61.646011
1012.000000	61.551268
1011.000000	61.484313
1010.000000	61.422063
1009.000000	61.375129
1008.000000	61.298766
1007.000000	61.264085
1006.000000	61.218464
1005.000000	61.169561
1004.000000	61.132802
1003.000000	61.079851
1002.000000	61.037949
1001.000000	60.995501
1000.000000	60.957976
999.000000	60.906775
998.000000	60.857216
997.000000	60.812251
996.000000	60.768928
995.000000	60.743874
994.000000	60.708100
993.000000	60.665761
992.000000	60.625282
991.000000	60.604386
990.000000	60.572987
989.000000	60.533711
988.000000	60.521458
987.000000	60.512487
986.000000	60.474306
985.000000	60.446955
984.000000	60.433827
983.000000	60.422230
982.000000	60.403194
981.000000	60.389409
980.000000	60.389190
979.000000	60.376828
978.000000	60.392253
977.000000	60.398708
976.000000	60.384048
975.000000	60.359214
974.000000	60.355713
973.000000	60.376718
972.000000	60.367419
971.000000	60.356260
970.000000	60.336458
969.000000	60.338427
968.000000	60.366106
967.000000	60.365778
966.000000	60.364028
965.000000	60.381751
964.000000	60.398818
963.000000	60.415666
962.000000	60.432842
961.000000	60.434264
960.000000	60.457020
959.000000	60.478901
958.000000	60.506251
957.000000	60.540494
956.000000	60.579989
955.000000	60.610840
954.000000	60.631408
953.000000	60.653179
952.000000	60.678342
951.000000	60.723525
950.000000	60.762254
949.000000	60.777352
948.000000	60.788292
947.000000	60.810172
946.000000	60.832162
945.000000	60.853277
944.000000	60.854809
943.000000	60.844744
942.000000	60.858310
941.000000	60.856231
940.000000	60.840149
939.000000	60.823191
938.000000	60.791793
937.000000	60.788292
936.000000	60.774288
935.000000	60.764661
934.000000	60.749344
933.000000	60.727136
932.000000	60.706459
931.000000	60.684359
930.000000	60.668058
929.000000	60.639285
928.000000	60.615654
927.000000	60.575394
926.000000	60.532727
925.000000	60.494764
924.000000	60.480104
923.000000	60.442579
922.000000	60.381313
921.000000	60.340396
920.000000	60.299370
919.000000	60.249373
918.000000	60.195219
917.000000	60.142377
916.000000	60.089864
915.000000	60.023019
914.000000	59.958033
913.000000	59.897643
912.000000	59.826641
911.000000	59.798305
910.000000	59.739665
909.000000	59.671288
908.000000	59.603787
907.000000	59.546022
906.000000	59.503683
905.000000	59.468565
904.000000	59.422069
903.000000	59.374478
902.000000	59.364960
901.000000	59.322184
900.000000	59.276891
899.000000	59.238819
898.000000	59.221205
897.000000	59.191447
896.000000	59.167160
895.000000	59.144185
894.000000	59.070995
893.000000	59.031172
892.000000	58.995616
891.000000	58.954371
890.000000	58.887307
889.000000	58.826370
888.000000	58.742458
887.000000	58.687100
886.000000	58.637103
885.000000	58.574962
884.000000	58.496848
883.000000	58.393463
882.000000	58.306816
881.000000	58.229468
880.000000	58.130458
879.000000	58.046984
878.000000	57.944692
877.000000	57.837477
876.000000	57.723698
875.000000	57.570097
874.000000	57.414526
873.000000	57.261471
872.000000	57.142769
871.000000	56.949782
870.000000	56.784037
869.000000	56.722552
868.000000	56.701000
867.000000	56.712050
866.000000	56.728679
865.000000	56.738306
864.000000	56.722334
863.000000	56.728679
862.000000	56.719817
861.000000	56.727694
860.000000	56.735353
859.000000	56.730429
858.000000	56.696733
857.000000	56.322200
856.000000	56.940000
855.000000	56.828000
854.000000	56.397900
853.000000	56.527500
852.000000	56.420900
851.000000	56.839000
850.000000	56.768400
849.000000	56.745000
848.000000	56.805900
847.000000	56.560600
846.000000	56.599700
845.000000	56.562300
844.000000	56.839300
843.000000	56.644900
842.000000	56.415800
841.000000	56.681900
840.000000	56.410500
839.000000	56.397300
838.000000	56.205000
837.000000	56.185200
836.000000	56.035500
835.000000	56.050700
834.000000	56.224600
833.000000	56.175300
832.000000	56.145500
831.000000	55.964400
830.000000	55.774900
829.000000	55.895900
828.000000	55.891800
827.000000	55.677800
826.000000	55.612400
825.000000	55.506600
824.000000	55.541200
823.000000	55.433400
822.000000	55.485500
821.000000	55.386900
820.000000	55.055800
819.000000	54.993700
818.000000	54.947300
817.000000	54.956800
816.000000	54.790400
815.000000	54.603700
814.000000	54.664500
813.000000	54.614200
812.000000	54.367400
811.000000	54.303500
810.000000	54.156200
809.000000	54.070700
808.000000	54.007700
807.000000	53.935500
806.000000	54.009300
805.000000	53.918500
804.000000	53.589700
803.000000	53.330500
802.000000	53.300300
801.000000	53.152900
800.000000	53.267600
799.000000	53.098800
798.000000	52.928000
797.000000	52.805100
796.000000	52.663900
795.000000	52.658800
794.000000	52.481600
793.000000	52.261700
792.000000	52.214500
791.000000	52.028300
790.000000	51.982900
789.000000	51.738000
788.000000	51.692500
787.000000	51.480500
786.000000	51.538300
785.000000	51.500900
784.000000	51.201300
783.000000	51.100000
782.000000	50.970700
781.000000	50.932500
780.000000	50.712800
779.000000	50.535900
778.000000	50.552800
777.000000	50.314500
776.000000	50.249600
775.000000	49.976600
774.000000	49.840900
773.000000	49.728100
772.000000	49.593700
771.000000	49.570200
770.000000	49.340400
769.000000	49.185000
768.000000	49.026800
767.000000	48.788500
766.000000	48.680300
765.000000	48.558100
764.000000	48.387900
763.000000	48.238100
762.000000	48.001100
761.000000	47.986500
760.000000	47.773400
759.000000	47.549800
758.000000	47.428100
757.000000	47.201800
756.000000	47.089300
755.000000	46.841600
754.000000	46.694200
753.000000	46.541900
752.000000	46.316400
751.000000	46.122600
750.000000	45.892400
749.000000	45.679500
748.000000	45.528200
747.000000	45.382700
746.000000	45.153100
745.000000	44.961400
744.000000	44.829900
743.000000	44.569800
742.000000	44.423200
741.000000	44.158700
740.000000	43.926000
739.000000	43.868200
738.000000	43.475900
737.000000	43.237000
736.000000	43.122100
735.000000	42.855900
734.000000	42.651200
733.000000	42.432000
732.000000	42.271800
731.000000	41.995000
730.000000	41.829800
729.000000	41.604600
728.000000	41.393600
727.000000	41.136300
726.000000	40.906800
725.000000	40.705100
724.000000	40.460400
723.000000	40.283700
722.000000	40.055200
721.000000	39.801200
720.000000	39.565600
719.000000	39.333700
718.000000	39.117500
717.000000	38.911600
716.000000	38.627000
715.000000	38.378600
714.000000	38.150400
713.000000	37.894600
712.000000	37.613000
711.000000	37.445300
710.000000	37.227200
709.000000	36.945300
708.000000	36.733700
707.000000	36.505300
706.000000	36.286700
705.000000	35.997200
704.000000	35.680700
703.000000	35.426200
702.000000	35.178600
701.000000	34.923000
700.000000	34.627300
699.000000	34.401200
698.000000	34.134700
697.000000	33.871700
696.000000	33.601000
695.000000	33.328500
694.000000	33.098100
693.000000	32.842300
692.000000	32.609800
691.000000	32.335700
690.000000	32.077000
689.000000	31.813500
688.000000	31.593100
687.000000	31.372900
686.000000	31.098200
685.000000	30.867000
684.000000	30.629600
683.000000	30.409900
682.000000	30.170800
681.000000	29.941600
680.000000	29.752300
679.000000	29.557700
678.000000	29.355800
677.000000	29.167300
676.000000	28.992400
675.000000	28.808700
674.000000	28.632000
673.000000	28.467600
672.000000	28.313700
671.000000	28.160400
670.000000	28.009300
669.000000	27.867600
668.000000	27.725800
667.000000	27.599700
666.000000	27.447400
665.000000	27.306100
664.000000	27.184500
663.000000	27.079800
662.000000	26.973000
661.000000	26.841100
660.000000	26.714400
659.000000	26.628400
658.000000	26.548700
657.000000	26.448200
656.000000	26.374100
655.000000	26.303100
654.000000	26.220100
653.000000	26.164300
652.000000	26.129900
651.000000	26.082300
650.000000	26.006100
649.000000	25.962500
648.000000	25.932900
647.000000	25.907300
646.000000	25.875000
645.000000	25.842100
644.000000	25.840200
643.000000	25.828300
642.000000	25.834400
641.000000	25.843800
640.000000	25.832100
639.000000	25.842400
638.000000	25.844000
637.000000	25.853800
636.000000	25.891200
635.000000	25.923800
634.000000	25.934900
633.000000	25.968300
632.000000	26.009900
631.000000	26.036400
630.000000	26.086200
629.000000	26.144600
628.000000	26.198300
627.000000	26.246900
626.000000	26.297100
625.000000	26.364300
624.000000	26.397400
623.000000	26.444300
622.000000	26.518800
621.000000	26.582000
620.000000	26.634700
619.000000	26.696900
618.000000	26.747400
617.000000	26.811700
616.000000	26.879400
615.000000	26.946200
614.000000	27.033500
613.000000	27.080300
612.000000	27.123600
611.000000	27.182400
610.000000	27.238400
609.000000	27.311700
608.000000	27.390400
607.000000	27.457400
606.000000	27.495800
605.000000	27.532600
604.000000	27.596100
603.000000	27.649300
602.000000	27.693700
601.000000	27.725700
600.000000	27.788200
599.000000	27.802900
598.000000	27.809400
597.000000	27.843900
596.000000	27.862800
595.000000	27.880600
594.000000	27.884400
593.000000	27.876400
592.000000	27.897700
591.000000	27.892900
590.000000	27.871300
589.000000	27.831900
588.000000	27.795600
587.000000	27.757000
586.000000	27.708300
585.000000	27.658100
584.000000	27.600400
583.000000	27.528600
582.000000	27.465100
581.000000	27.410600
580.000000	27.337900
579.000000	27.248100
578.000000	27.140700
577.000000	27.043600
576.000000	26.927100
575.000000	26.801300
574.000000	26.683600
573.000000	26.574800
572.000000	26.451700
571.000000	26.279500
570.000000	26.138600
569.000000	26.005300
568.000000	25.809200
567.000000	25.634300
566.000000	25.452800
565.000000	25.275600
564.000000	25.104800
563.000000	24.894200
562.000000	24.712800
561.000000	24.490200
560.000000	24.291200
559.000000	24.087700
558.000000	23.879000
557.000000	23.664700
556.000000	23.406700
555.000000	23.179000
554.000000	22.944100
553.000000	22.697400
552.000000	22.450500
551.000000	22.193100
550.000000	21.976600
549.000000	21.718800
548.000000	21.482900
547.000000	21.227700
546.000000	20.983500
545.000000	20.726100
544.000000	20.475500
543.000000	20.229000
542.000000	19.986300
541.000000	19.744000
540.000000	19.507800
539.000000	19.269600
538.000000	19.036200
537.000000	18.807500
536.000000	18.595000
535.000000	18.366800
534.000000	18.153000
533.000000	17.935100
532.000000	17.711300
531.000000	17.511400
530.000000	17.290000
529.000000	17.094900
528.000000	16.910900
527.000000	16.710600
526.000000	16.511500
525.000000	16.332500
524.000000	16.143000
523.000000	15.950800
522.000000	15.773200
521.000000	15.590900
520.000000	15.423700
519.000000	15.252900
518.000000	15.095000
517.000000	14.927200
516.000000	14.774600
515.000000	14.604300
514.000000	14.461300
513.000000	14.306800
512.000000	14.155500
511.000000	14.018600
510.000000	13.876500
509.000000	13.765000
508.000000	13.658000
507.000000	13.514800
506.000000	13.393500
505.000000	13.292200
504.000000	13.195400
503.000000	13.057400
502.000000	12.982200
501.000000	12.890300
500.000000	12.813300
499.000000	12.745000
498.000000	12.677100
497.000000	12.571800
496.000000	12.510500
495.000000	12.435600
494.000000	12.383000
493.000000	12.354900
492.000000	12.279900
491.000000	12.261500
490.000000	12.210700
489.000000	12.189200
488.000000	12.151500
487.000000	12.116500
486.000000	12.096600
485.000000	12.071700
484.000000	12.047000
483.000000	12.011600
482.000000	11.985200
481.000000	11.959200
480.000000	11.923100
479.000000	11.895000
478.000000	11.856900
477.000000	11.819200
476.000000	11.791800
475.000000	11.768500
474.000000	11.708800
473.000000	11.680000
472.000000	11.640400
471.000000	11.617300
470.000000	11.560500
469.000000	11.525900
468.000000	11.480500
467.000000	11.422100
466.000000	11.400300
465.000000	11.352700
464.000000	11.323500
463.000000	11.276000
462.000000	11.242800
461.000000	11.194600
460.000000	11.162900
459.000000	11.103000
458.000000	11.066500
457.000000	10.997600
456.000000	10.953800
455.000000	10.898900
454.000000	10.845300
453.000000	10.795300
452.000000	10.736100
451.000000	10.652900
450.000000	10.595500
449.000000	10.536500
448.000000	10.470400
447.000000	10.419300
446.000000	10.339200
445.000000	10.264400
444.000000	10.196700
443.000000	10.108200
442.000000	10.063400
441.000000	9.965800
440.000000	9.876300
439.000000	9.803900
438.000000	9.752000
437.000000	9.652000
436.000000	9.560500
435.000000	9.469000
434.000000	9.414400
433.000000	9.331300
432.000000	9.232900
431.000000	9.169600
430.000000	9.092500
429.000000	8.999600
428.000000	8.936000
427.000000	8.867400
426.000000	8.795100
425.000000	8.707200
424.000000	8.614300
423.000000	8.544700
422.000000	8.479000
421.000000	8.411400
420.000000	8.319700
419.000000	8.245000
418.000000	8.169400
417.000000	8.111000
416.000000	8.042100
415.000000	7.955600
414.000000	7.893200
413.000000	7.830200
412.000000	7.740300
411.000000	7.680300
410.000000	7.600400
409.000000	7.521900
408.000000	7.443800
407.000000	7.370000
406.000000	7.297500
405.000000	7.211300
404.000000	7.153400
403.000000	7.072300
402.000000	7.016500
401.000000	6.934400
400.000000	6.856200
399.000000	6.793500
398.000000	6.714100
397.000000	6.639800
396.000000	6.554800
395.000000	6.481500
394.000000	6.418600
393.000000	6.352400
392.000000	6.271300
391.000000	6.202500
390.000000	6.153600
389.000000	6.061600
388.000000	5.996000
387.000000	5.938100
386.000000	5.871900
385.000000	5.805900
384.000000	5.746500
383.000000	5.698100
382.000000	5.641300
381.000000	5.573000
380.000000	5.527900
379.000000	5.467000
378.000000	5.416000
377.000000	5.359800
376.000000	5.256200
375.000000	5.027000
374.000000	4.854400
373.000000	4.808500
372.000000	5.020700
371.000000	5.096100
370.000000	5.039700
369.000000	4.929600
368.000000	4.820700
367.000000	4.796900
366.000000	4.804300
365.000000	4.828600
364.000000	4.802700
363.000000	4.802900
362.000000	4.799600
361.000000	4.936300
360.000000	5.009900
359.000000	4.886200
358.000000	4.930900
357.000000	4.959300
356.000000	4.837900
355.000000	4.824600
354.000000	4.907100
353.000000	4.894600
352.000000	4.911500
351.000000	4.918100
350.000000	4.828100
349.000000	4.824600
348.000000	4.761100
347.000000	4.766900
346.000000	4.729800
345.000000	4.754600
344.000000	4.768700
343.000000	4.710000
342.000000	4.737000
341.000000	5.029600
340.000000	5.054400
339.000000	5.016200
338.000000	5.170500
337.000000	5.010200
336.000000	4.871500
335.000000	4.776800
334.000000	4.676600
333.000000	4.720900
332.000000	5.008300
331.000000	5.204500
330.000000	4.945200
329.000000	5.010600
328.000000	5.336700
327.000000	5.468300
326.000000	5.584900
325.000000	5.570800
324.000000	5.602700
323.000000	5.530100
322.000000	5.455600
321.000000	5.738500
320.000000	5.782800
319.000000	5.444800
318.000000	5.551300
317.000000	5.569700
316.000000	5.039100
315.000000	4.765900
314.000000	4.777100
313.000000	4.785900
312.000000	4.755600
311.000000	4.757500
310.000000	4.812400
309.000000	4.791700
308.000000	4.779500
307.000000	4.813600
306.000000	4.790700
305.000000	4.803900
304.000000	4.802200
303.000000	4.749700
302.000000	4.795800
301.000000	4.827100
300.000000	4.816600
299.000000	4.815800
298.000000	4.762900
297.000000	4.738300
296.000000	4.774300
295.000000	4.835900
294.000000	4.880500
293.000000	4.870100
292.000000	4.850500
291.000000	4.847000
290.000000	4.844000
289.000000	4.861700
288.000000	4.860700
287.000000	4.820500
286.000000	4.811500
285.000000	4.820100
284.000000	4.823300
283.000000	4.884900
282.000000	4.880600
281.000000	4.850700
280.000000	4.893100
279.000000	4.942800
278.000000	4.891800
277.000000	4.930300
276.000000	4.927900
275.000000	4.937800
274.000000	4.952500
273.000000	4.942700
272.000000	4.974400
271.000000	4.994400
270.000000	5.014800
269.000000	4.982200
268.000000	5.019500
267.000000	5.074200
266.000000	5.108000
265.000000	5.099200
264.000000	5.128300
263.000000	5.131700
262.000000	5.140300
261.000000	5.184600
260.000000	5.224000
259.000000	5.236900
258.000000	5.221300
257.000000	5.271200
256.000000	5.276600
255.000000	5.261500
254.000000	5.286700
253.000000	5.310900
252.000000	5.272600
251.000000	5.332400
250.000000	5.332700
