PE UV       SUBTECH     SPECTRUM    ASCII       PEDS        4.00        
   -1
CICIMAUCR0006-3.Sample.ASC
24/04/12
11:24:13.00
24/04/12
11:24:13.00
Vinicio Soto Monge
C. kalinini
250,000000
1
Lambda 1050
1050L1511233
PerkinElmer UV WinLab 6.3.2.0749 / 2.02.05 Lambda 900 UV/VIS/NIR, Aug  7 2015 09:38:08

0
0
3350/servo 860,8/2
0
0
UV/VIS
1
1
1
DoubleDePol,CommonBeamDepol,RBeamAtt,SBeamAtt,60mm sphere, WB InGaAs Detector
0
0
0
0
Program
Program
3350/servo 860,8/2
3350/0,2 860,8/0,2
3350/0,2 860,8/0,2
0
15.00
 
 
 
0
 
860,8
319,2
860,8
Front
100
on
S:100 R:100
0
0
0
0
 
0
 
 
 
0
 
 
0
0
0
0
0
 
 
 
 
0
0


0
0
#HDR
-1
-1
#GR
nm
%R
1.0
0.0
2500,000000
-1,000000
2251
8
53,231800
3,109100
#DATA
2482.000000	9.043014
2481.000000	9.037323
2480.000000	9.058223
2479.000000	9.130721
2478.000000	9.096478
2477.000000	9.108794
2476.000000	9.088640
2475.000000	9.100863
2474.000000	9.176627
2473.000000	9.139958
2472.000000	9.181945
2471.000000	9.183158
2470.000000	9.220014
2469.000000	9.231677
2468.000000	9.279262
2467.000000	9.314998
2466.000000	9.354466
2465.000000	9.387589
2464.000000	9.461020
2463.000000	9.493863
2462.000000	9.533518
2461.000000	9.620945
2460.000000	9.667504
2459.000000	9.733284
2458.000000	9.827801
2457.000000	9.879212
2456.000000	9.965519
2455.000000	10.019730
2454.000000	10.107436
2453.000000	10.156421
2452.000000	10.232091
2451.000000	10.294699
2450.000000	10.374568
2449.000000	10.457609
2448.000000	10.532160
2447.000000	10.581425
2446.000000	10.669784
2445.000000	10.734911
2444.000000	10.799478
2443.000000	10.876828
2442.000000	10.955484
2441.000000	11.008574
2440.000000	11.081166
2439.000000	11.146759
2438.000000	11.228494
2437.000000	11.296980
2436.000000	11.358001
2435.000000	11.414917
2434.000000	11.460823
2433.000000	11.521191
2432.000000	11.580906
2431.000000	11.648926
2430.000000	11.685688
2429.000000	11.732340
2428.000000	11.773021
2427.000000	11.751748
2426.000000	11.709574
2425.000000	11.667773
2424.000000	11.648553
2423.000000	11.658163
2422.000000	11.705935
2421.000000	11.738125
2420.000000	11.752774
2419.000000	11.754454
2418.000000	11.752121
2417.000000	11.774514
2416.000000	11.766117
2415.000000	11.783005
2414.000000	11.800453
2413.000000	11.787577
2412.000000	11.778620
2411.000000	11.798680
2410.000000	11.809690
2409.000000	11.801199
2408.000000	11.812023
2407.000000	11.785337
2406.000000	11.814542
2405.000000	11.826205
2404.000000	11.821260
2403.000000	11.843373
2402.000000	11.826205
2401.000000	11.844866
2400.000000	11.841507
2399.000000	11.826112
2398.000000	11.851117
2397.000000	11.841040
2396.000000	11.833763
2395.000000	11.837961
2394.000000	11.803532
2393.000000	11.813236
2392.000000	11.824152
2391.000000	11.810250
2390.000000	11.789909
2389.000000	11.793735
2388.000000	11.792242
2387.000000	11.790283
2386.000000	11.770782
2385.000000	11.735139
2384.000000	11.727022
2383.000000	11.726182
2382.000000	11.698937
2381.000000	11.663388
2380.000000	11.633437
2379.000000	11.584452
2378.000000	11.572322
2377.000000	11.561779
2376.000000	11.547970
2375.000000	11.535654
2374.000000	11.497772
2373.000000	11.443562
2372.000000	11.429099
2371.000000	11.390378
2370.000000	11.318160
2369.000000	11.277759
2368.000000	11.252100
2367.000000	11.199476
2366.000000	11.147692
2365.000000	11.106451
2364.000000	11.061852
2363.000000	10.996725
2362.000000	10.932531
2361.000000	10.894089
2360.000000	10.854528
2359.000000	10.784083
2358.000000	10.729593
2357.000000	10.711398
2356.000000	10.693857
2355.000000	10.638061
2354.000000	10.601672
2353.000000	10.611189
2352.000000	10.613895
2351.000000	10.594954
2350.000000	10.597567
2349.000000	10.608017
2348.000000	10.624065
2347.000000	10.618747
2346.000000	10.623785
2345.000000	10.631063
2344.000000	10.629197
2343.000000	10.640767
2342.000000	10.654203
2341.000000	10.636941
2340.000000	10.627611
2339.000000	10.627797
2338.000000	10.597660
2337.000000	10.542237
2336.000000	10.500623
2335.000000	10.488680
2334.000000	10.482988
2333.000000	10.437082
2332.000000	10.403026
2331.000000	10.353014
2330.000000	10.310747
2329.000000	10.274825
2328.000000	10.202607
2327.000000	10.145971
2326.000000	10.090921
2325.000000	10.055652
2324.000000	10.003681
2323.000000	9.934262
2322.000000	9.869322
2321.000000	9.801396
2320.000000	9.721900
2319.000000	9.654907
2318.000000	9.582503
2317.000000	9.481734
2316.000000	9.413248
2315.000000	9.360811
2314.000000	9.283368
2313.000000	9.235409
2312.000000	9.182412
2311.000000	9.145650
2310.000000	9.091253
2309.000000	9.061395
2308.000000	9.066714
2307.000000	9.034803
2306.000000	9.032377
2305.000000	9.082016
2304.000000	9.124469
2303.000000	9.129788
2302.000000	9.182878
2301.000000	9.248938
2300.000000	9.287100
2299.000000	9.317330
2298.000000	9.391788
2297.000000	9.446744
2296.000000	9.464006
2295.000000	9.521948
2294.000000	9.547700
2293.000000	9.549286
2292.000000	9.571493
2291.000000	9.607135
2290.000000	9.597898
2289.000000	9.567201
2288.000000	9.550126
2287.000000	9.535757
2286.000000	9.525120
2285.000000	9.468951
2284.000000	9.439933
2283.000000	9.394774
2282.000000	9.366502
2281.000000	9.292231
2280.000000	9.266199
2279.000000	9.213109
2278.000000	9.182225
2277.000000	9.127828
2276.000000	9.081642
2275.000000	9.090880
2274.000000	9.079403
2273.000000	9.026966
2272.000000	9.015116
2271.000000	9.055797
2270.000000	9.093026
2269.000000	9.080803
2268.000000	9.123909
2267.000000	9.211336
2266.000000	9.310519
2265.000000	9.365942
2264.000000	9.468764
2263.000000	9.595939
2262.000000	9.732537
2261.000000	9.905338
2260.000000	10.045762
2259.000000	10.203447
2258.000000	10.364771
2257.000000	10.546715
2256.000000	10.712985
2255.000000	10.840346
2254.000000	11.004282
2253.000000	11.193691
2252.000000	11.346431
2251.000000	11.503557
2250.000000	11.600967
2249.000000	11.730381
2248.000000	11.863714
2247.000000	11.988555
2246.000000	12.073929
2245.000000	12.169380
2244.000000	12.285731
2243.000000	12.360282
2242.000000	12.456666
2241.000000	12.493988
2240.000000	12.567792
2239.000000	12.647194
2238.000000	12.697113
2237.000000	12.737420
2236.000000	12.786499
2235.000000	12.845934
2234.000000	12.889787
2233.000000	12.934760
2232.000000	12.962845
2231.000000	12.957433
2230.000000	12.968350
2229.000000	12.974228
2228.000000	12.993449
2227.000000	13.002499
2226.000000	13.016962
2225.000000	13.008098
2224.000000	12.992796
2223.000000	12.944930
2222.000000	12.941105
2221.000000	12.933081
2220.000000	12.930841
2219.000000	12.901917
2218.000000	12.890254
2217.000000	12.863475
2216.000000	12.836323
2215.000000	12.821395
2214.000000	12.791444
2213.000000	12.775582
2212.000000	12.751883
2211.000000	12.740033
2210.000000	12.717733
2209.000000	12.695060
2208.000000	12.685636
2207.000000	12.662030
2206.000000	12.618177
2205.000000	12.610059
2204.000000	12.596903
2203.000000	12.585147
2202.000000	12.564433
2201.000000	12.553796
2200.000000	12.541947
2199.000000	12.537188
2198.000000	12.520580
2197.000000	12.496414
2196.000000	12.477473
2195.000000	12.465530
2194.000000	12.445843
2193.000000	12.443230
2192.000000	12.430821
2191.000000	12.424103
2190.000000	12.416825
2189.000000	12.412719
2188.000000	12.388087
2187.000000	12.385848
2186.000000	12.371199
2185.000000	12.348619
2184.000000	12.327905
2183.000000	12.316615
2182.000000	12.354590
2181.000000	12.335556
2180.000000	12.329025
2179.000000	12.324919
2178.000000	12.303646
2177.000000	12.332664
2176.000000	12.326599
2175.000000	12.326039
2174.000000	12.310271
2173.000000	12.329958
2172.000000	12.338355
2171.000000	12.371105
2170.000000	12.359536
2169.000000	12.360469
2168.000000	12.381089
2167.000000	12.398257
2166.000000	12.431007
2165.000000	12.426902
2164.000000	12.450881
2163.000000	12.471222
2162.000000	12.514981
2161.000000	12.523192
2160.000000	12.542040
2159.000000	12.583187
2158.000000	12.633759
2157.000000	12.645048
2156.000000	12.670054
2155.000000	12.704297
2154.000000	12.716240
2153.000000	12.737234
2152.000000	12.763826
2151.000000	12.804506
2150.000000	12.844534
2149.000000	12.869820
2148.000000	12.906302
2147.000000	12.920391
2146.000000	12.930655
2145.000000	12.948476
2144.000000	12.970589
2143.000000	12.986638
2142.000000	13.009964
2141.000000	13.024799
2140.000000	13.043180
2139.000000	13.054564
2138.000000	13.049712
2137.000000	13.053537
2136.000000	13.058762
2135.000000	13.069959
2134.000000	13.070612
2133.000000	13.074344
2132.000000	13.056896
2131.000000	13.062215
2130.000000	13.066973
2129.000000	13.046726
2128.000000	13.009684
2127.000000	13.008471
2126.000000	12.988037
2125.000000	12.963965
2124.000000	12.955194
2123.000000	12.938306
2122.000000	12.906862
2121.000000	12.866368
2120.000000	12.824474
2119.000000	12.793403
2118.000000	12.778941
2117.000000	12.746004
2116.000000	12.704670
2115.000000	12.665296
2114.000000	12.629000
2113.000000	12.614911
2112.000000	12.589625
2111.000000	12.552397
2110.000000	12.517781
2109.000000	12.479246
2108.000000	12.455826
2107.000000	12.429887
2106.000000	12.389486
2105.000000	12.351698
2104.000000	12.314469
2103.000000	12.297115
2102.000000	12.289930
2101.000000	12.265204
2100.000000	12.220791
2099.000000	12.182350
2098.000000	12.170313
2097.000000	12.169007
2096.000000	12.146427
2095.000000	12.109105
2094.000000	12.111531
2093.000000	12.106586
2092.000000	12.087925
2091.000000	12.081114
2090.000000	12.063759
2089.000000	12.055548
2088.000000	12.041459
2087.000000	12.032129
2086.000000	12.025224
2085.000000	11.989675
2084.000000	11.965323
2083.000000	11.954313
2082.000000	11.949554
2081.000000	11.937704
2080.000000	11.913912
2079.000000	11.876030
2078.000000	11.840574
2077.000000	11.833763
2076.000000	11.818181
2075.000000	11.814728
2074.000000	11.792335
2073.000000	11.771062
2072.000000	11.738685
2071.000000	11.709387
2070.000000	11.698191
2069.000000	11.687741
2068.000000	11.654244
2067.000000	11.642954
2066.000000	11.626626
2065.000000	11.599381
2064.000000	11.584172
2063.000000	11.576335
2062.000000	11.550956
2061.000000	11.537986
2060.000000	11.544704
2059.000000	11.543864
2058.000000	11.537147
2057.000000	11.557580
2056.000000	11.560100
2055.000000	11.588651
2054.000000	11.639222
2053.000000	11.675331
2052.000000	11.724409
2051.000000	11.783938
2050.000000	11.843466
2049.000000	11.909620
2048.000000	11.998073
2047.000000	12.075142
2046.000000	12.171620
2045.000000	12.268937
2044.000000	12.355244
2043.000000	12.440711
2042.000000	12.549598
2041.000000	12.641316
2040.000000	12.721092
2039.000000	12.810011
2038.000000	12.893426
2037.000000	12.988504
2036.000000	13.089926
2035.000000	13.166156
2034.000000	13.229044
2033.000000	13.287452
2032.000000	13.363029
2031.000000	13.453815
2030.000000	13.505039
2029.000000	13.544414
2028.000000	13.584722
2027.000000	13.647609
2026.000000	13.710497
2025.000000	13.741194
2024.000000	13.779822
2023.000000	13.821156
2022.000000	13.877046
2021.000000	13.919780
2020.000000	13.957288
2019.000000	13.970071
2018.000000	14.007020
2017.000000	14.048540
2016.000000	14.065055
2015.000000	14.082876
2014.000000	14.117026
2013.000000	14.127196
2012.000000	14.121411
2011.000000	14.130369
2010.000000	14.140352
2009.000000	14.136993
2008.000000	14.130928
2007.000000	14.143151
2006.000000	14.113480
2005.000000	14.108909
2004.000000	14.085302
2003.000000	14.069814
2002.000000	14.061323
2001.000000	14.022695
2000.000000	13.994890
1999.000000	13.960367
1998.000000	13.920806
1997.000000	13.863517
1996.000000	13.834219
1995.000000	13.814065
1994.000000	13.740354
1993.000000	13.700700
1992.000000	13.680079
1991.000000	13.602916
1990.000000	13.553278
1989.000000	13.477608
1988.000000	13.427596
1987.000000	13.382437
1986.000000	13.326361
1985.000000	13.263660
1984.000000	13.199839
1983.000000	13.121836
1982.000000	13.071638
1981.000000	12.988130
1980.000000	12.950435
1979.000000	12.865528
1978.000000	12.814117
1977.000000	12.731635
1976.000000	12.699352
1975.000000	12.628160
1974.000000	12.546705
1973.000000	12.495294
1972.000000	12.427648
1971.000000	12.386314
1970.000000	12.337609
1969.000000	12.282466
1968.000000	12.221818
1967.000000	12.152959
1966.000000	12.089045
1965.000000	12.028397
1964.000000	11.970828
1963.000000	11.923709
1962.000000	11.869125
1961.000000	11.824246
1960.000000	11.764064
1959.000000	11.701550
1958.000000	11.647619
1957.000000	11.575961
1956.000000	11.525763
1955.000000	11.483310
1954.000000	11.447481
1953.000000	11.393364
1952.000000	11.351470
1951.000000	11.276639
1950.000000	11.245009
1949.000000	11.196397
1948.000000	11.143493
1947.000000	11.117648
1946.000000	11.088070
1945.000000	11.060265
1944.000000	11.030035
1943.000000	11.008761
1942.000000	10.973865
1941.000000	10.969480
1940.000000	10.952405
1939.000000	10.974145
1938.000000	11.023037
1937.000000	11.042724
1936.000000	11.035166
1935.000000	11.032274
1934.000000	11.045896
1933.000000	11.062598
1932.000000	11.090776
1931.000000	11.161408
1930.000000	11.217018
1929.000000	11.303418
1928.000000	11.394763
1927.000000	11.474446
1926.000000	11.571389
1925.000000	11.666840
1924.000000	11.695671
1923.000000	11.756693
1922.000000	11.927347
1921.000000	12.115450
1920.000000	12.282279
1919.000000	12.463104
1918.000000	12.554916
1917.000000	12.586640
1916.000000	12.657925
1915.000000	12.796855
1914.000000	13.020227
1913.000000	13.296690
1912.000000	13.560183
1911.000000	13.729531
1910.000000	13.835992
1909.000000	13.892535
1908.000000	13.996663
1907.000000	14.224233
1906.000000	14.532886
1905.000000	14.904146
1904.000000	15.204401
1903.000000	15.376362
1902.000000	15.542351
1901.000000	15.756019
1900.000000	16.031269
1899.000000	16.394691
1898.000000	16.707076
1897.000000	16.911880
1896.000000	17.008077
1895.000000	17.097090
1894.000000	17.288552
1893.000000	17.541315
1892.000000	17.862657
1891.000000	18.236902
1890.000000	18.546861
1889.000000	18.777884
1888.000000	18.989313
1887.000000	19.156795
1886.000000	19.416836
1885.000000	19.779885
1884.000000	20.195838
1883.000000	20.579321
1882.000000	20.939571
1881.000000	21.272763
1880.000000	21.522820
1879.000000	21.785100
1878.000000	22.069773
1877.000000	22.375160
1876.000000	22.672802
1875.000000	22.975203
1874.000000	23.225727
1873.000000	23.526448
1872.000000	23.854415
1871.000000	24.118001
1870.000000	24.384853
1869.000000	24.615596
1868.000000	24.735586
1867.000000	24.759752
1866.000000	24.727375
1865.000000	24.667194
1864.000000	24.593203
1863.000000	24.507083
1862.000000	24.493180
1861.000000	24.552895
1860.000000	24.639482
1859.000000	24.765630
1858.000000	24.858375
1857.000000	24.805565
1856.000000	24.708341
1855.000000	24.711140
1854.000000	24.736706
1853.000000	24.733254
1852.000000	24.687814
1851.000000	24.531062
1850.000000	24.335775
1849.000000	24.299759
1848.000000	24.477505
1847.000000	24.699944
1846.000000	24.726442
1845.000000	24.501111
1844.000000	24.192552
1843.000000	24.008555
1842.000000	24.052968
1841.000000	24.221663
1840.000000	24.272701
1839.000000	24.223156
1838.000000	24.159055
1837.000000	24.157749
1836.000000	24.204961
1835.000000	24.195258
1834.000000	24.046343
1833.000000	23.821478
1832.000000	23.662767
1831.000000	23.615555
1830.000000	23.648491
1829.000000	23.622273
1828.000000	23.537365
1827.000000	23.511240
1826.000000	23.502003
1825.000000	23.426799
1824.000000	23.288054
1823.000000	23.111428
1822.000000	23.068975
1821.000000	23.216303
1820.000000	23.361579
1819.000000	23.365871
1818.000000	23.271913
1817.000000	23.176182
1816.000000	23.153322
1815.000000	23.156308
1814.000000	23.140539
1813.000000	23.103311
1812.000000	23.089875
1811.000000	23.110962
1810.000000	23.089688
1809.000000	23.024002
1808.000000	22.933869
1807.000000	22.888336
1806.000000	22.898787
1805.000000	22.883858
1804.000000	22.826102
1803.000000	22.756590
1802.000000	22.728319
1801.000000	22.727945
1800.000000	22.698088
1799.000000	22.650596
1798.000000	22.590787
1797.000000	22.526034
1796.000000	22.490018
1795.000000	22.451576
1794.000000	22.417893
1793.000000	22.380198
1792.000000	22.345302
1791.000000	22.307140
1790.000000	22.257782
1789.000000	22.201239
1788.000000	22.163544
1787.000000	22.124729
1786.000000	22.075185
1785.000000	22.031611
1784.000000	21.987851
1783.000000	21.937373
1782.000000	21.870754
1781.000000	21.818130
1780.000000	21.758881
1779.000000	21.690582
1778.000000	21.636932
1777.000000	21.559209
1776.000000	21.471409
1775.000000	21.375305
1774.000000	21.276122
1773.000000	21.182537
1772.000000	21.072437
1771.000000	20.983704
1770.000000	20.885361
1769.000000	20.771436
1768.000000	20.680837
1767.000000	20.606193
1766.000000	20.542559
1765.000000	20.465396
1764.000000	20.437498
1763.000000	20.434418
1762.000000	20.451680
1761.000000	20.483870
1760.000000	20.537427
1759.000000	20.585759
1758.000000	20.621401
1757.000000	20.675052
1756.000000	20.712934
1755.000000	20.753894
1754.000000	20.779740
1753.000000	20.785711
1752.000000	20.781886
1751.000000	20.762852
1750.000000	20.731035
1749.000000	20.664695
1748.000000	20.610391
1747.000000	20.534815
1746.000000	20.454106
1745.000000	20.337288
1744.000000	20.211420
1743.000000	20.057094
1742.000000	19.886812
1741.000000	19.716438
1740.000000	19.516765
1739.000000	19.337620
1738.000000	19.153809
1737.000000	18.989126
1736.000000	18.879959
1735.000000	18.796265
1734.000000	18.759410
1733.000000	18.744574
1732.000000	18.774338
1731.000000	18.818005
1730.000000	18.891716
1729.000000	18.964680
1728.000000	19.047722
1727.000000	19.116207
1726.000000	19.179002
1725.000000	19.204567
1724.000000	19.243662
1723.000000	19.290034
1722.000000	19.313827
1721.000000	19.326423
1720.000000	19.349283
1719.000000	19.375502
1718.000000	19.435870
1717.000000	19.486814
1716.000000	19.560992
1715.000000	19.606338
1714.000000	19.673517
1713.000000	19.742563
1712.000000	19.794067
1711.000000	19.839787
1710.000000	19.855648
1709.000000	19.858541
1708.000000	19.860873
1707.000000	19.856488
1706.000000	19.830363
1705.000000	19.809463
1704.000000	19.771767
1703.000000	19.706920
1702.000000	19.620893
1701.000000	19.536079
1700.000000	19.428219
1699.000000	19.278278
1698.000000	19.176109
1697.000000	19.106784
1696.000000	19.064050
1695.000000	19.052947
1694.000000	19.099412
1693.000000	19.189172
1692.000000	19.329036
1691.000000	19.427192
1690.000000	19.556513
1689.000000	19.623039
1688.000000	19.672118
1687.000000	19.701695
1686.000000	19.714945
1685.000000	19.758052
1684.000000	19.854156
1683.000000	20.026396
1682.000000	20.299686
1681.000000	20.671320
1680.000000	21.089885
1679.000000	21.517688
1678.000000	21.953515
1677.000000	22.359298
1676.000000	22.717495
1675.000000	23.007300
1674.000000	23.281337
1673.000000	23.520943
1672.000000	23.724441
1671.000000	23.897242
1670.000000	24.062392
1669.000000	24.215412
1668.000000	24.357981
1667.000000	24.464536
1666.000000	24.551402
1665.000000	24.644801
1664.000000	24.711420
1663.000000	24.777573
1662.000000	24.829358
1661.000000	24.871065
1660.000000	24.930967
1659.000000	24.975939
1658.000000	24.994787
1657.000000	24.998333
1656.000000	25.039480
1655.000000	25.056928
1654.000000	25.046758
1653.000000	25.049277
1652.000000	25.053662
1651.000000	25.022032
1650.000000	25.009063
1649.000000	24.971927
1648.000000	24.946922
1647.000000	24.921823
1646.000000	24.892432
1645.000000	24.853617
1644.000000	24.804165
1643.000000	24.766097
1642.000000	24.713100
1641.000000	24.673818
1640.000000	24.639296
1639.000000	24.584619
1638.000000	24.541512
1637.000000	24.484876
1636.000000	24.434118
1635.000000	24.383174
1634.000000	24.326911
1633.000000	24.273261
1632.000000	24.217091
1631.000000	24.157749
1630.000000	24.100460
1629.000000	24.036826
1628.000000	23.976085
1627.000000	23.925700
1626.000000	23.865052
1625.000000	23.800485
1624.000000	23.720896
1623.000000	23.656235
1622.000000	23.581312
1621.000000	23.518517
1620.000000	23.455257
1619.000000	23.414016
1618.000000	23.355421
1617.000000	23.277978
1616.000000	23.202681
1615.000000	23.150336
1614.000000	23.102191
1613.000000	23.057685
1612.000000	22.996010
1611.000000	22.936109
1610.000000	22.880872
1609.000000	22.809587
1608.000000	22.749592
1607.000000	22.699394
1606.000000	22.639492
1605.000000	22.578004
1604.000000	22.523514
1603.000000	22.463799
1602.000000	22.389622
1601.000000	22.320203
1600.000000	22.264407
1599.000000	22.205158
1598.000000	22.144230
1597.000000	22.090860
1596.000000	22.044114
1595.000000	22.002034
1594.000000	21.954075
1593.000000	21.898465
1592.000000	21.859090
1591.000000	21.818969
1590.000000	21.776889
1589.000000	21.742553
1588.000000	21.713815
1587.000000	21.679385
1586.000000	21.630773
1585.000000	21.595784
1584.000000	21.573018
1583.000000	21.549785
1582.000000	21.545959
1581.000000	21.544187
1580.000000	21.531124
1579.000000	21.506585
1578.000000	21.491096
1577.000000	21.505558
1576.000000	21.500986
1575.000000	21.497441
1574.000000	21.500706
1573.000000	21.505558
1572.000000	21.528325
1571.000000	21.546426
1570.000000	21.562101
1569.000000	21.576470
1568.000000	21.608007
1567.000000	21.638424
1566.000000	21.646822
1565.000000	21.661564
1564.000000	21.681905
1563.000000	21.699912
1562.000000	21.714001
1561.000000	21.717454
1560.000000	21.728930
1559.000000	21.734528
1558.000000	21.750577
1557.000000	21.765972
1556.000000	21.762240
1555.000000	21.755149
1554.000000	21.739380
1553.000000	21.749457
1552.000000	21.754496
1551.000000	21.733129
1550.000000	21.715214
1549.000000	21.710363
1548.000000	21.696273
1547.000000	21.674533
1546.000000	21.662590
1545.000000	21.645049
1544.000000	21.632919
1543.000000	21.620976
1542.000000	21.623589
1541.000000	21.630027
1540.000000	21.636558
1539.000000	21.621630
1538.000000	21.620230
1537.000000	21.620883
1536.000000	21.626481
1535.000000	21.618271
1534.000000	21.616498
1533.000000	21.612486
1532.000000	21.598957
1531.000000	21.583468
1530.000000	21.567513
1529.000000	21.545213
1528.000000	21.520301
1527.000000	21.519741
1526.000000	21.520767
1525.000000	21.489043
1524.000000	21.465624
1523.000000	21.443791
1522.000000	21.423077
1521.000000	21.407775
1520.000000	21.390887
1519.000000	21.366907
1518.000000	21.341062
1517.000000	21.339102
1516.000000	21.301967
1515.000000	21.278921
1514.000000	21.256434
1513.000000	21.218459
1512.000000	21.192427
1511.000000	21.180298
1510.000000	21.157251
1509.000000	21.133832
1508.000000	21.105374
1507.000000	21.081581
1506.000000	21.038754
1505.000000	21.006844
1504.000000	21.003018
1503.000000	20.967749
1502.000000	20.929214
1501.000000	20.929961
1500.000000	20.919324
1499.000000	20.913726
1498.000000	20.881535
1497.000000	20.879109
1496.000000	20.885827
1495.000000	20.867540
1494.000000	20.851771
1493.000000	20.866327
1492.000000	20.875377
1491.000000	20.883588
1490.000000	20.891239
1489.000000	20.885827
1488.000000	20.899916
1487.000000	20.893758
1486.000000	20.907847
1485.000000	20.931827
1484.000000	20.941904
1483.000000	20.927068
1482.000000	20.943863
1481.000000	20.965230
1480.000000	20.988090
1479.000000	21.018040
1478.000000	21.045939
1477.000000	21.074397
1476.000000	21.130379
1475.000000	21.166209
1474.000000	21.182257
1473.000000	21.211275
1472.000000	21.236374
1471.000000	21.282840
1470.000000	21.331731
1469.000000	21.360749
1468.000000	21.367001
1467.000000	21.405629
1466.000000	21.478593
1465.000000	21.508731
1464.000000	21.537655
1463.000000	21.574044
1462.000000	21.634692
1461.000000	21.678172
1460.000000	21.766252
1459.000000	21.822142
1458.000000	21.885869
1457.000000	21.975815
1456.000000	22.048779
1455.000000	22.120251
1454.000000	22.194708
1453.000000	22.247612
1452.000000	22.346328
1451.000000	22.460160
1450.000000	22.589481
1449.000000	22.654888
1448.000000	22.717589
1447.000000	22.778703
1446.000000	22.896081
1445.000000	23.052833
1444.000000	23.129156
1443.000000	23.209585
1442.000000	23.318752
1441.000000	23.428852
1440.000000	23.525515
1439.000000	23.594281
1438.000000	23.716790
1437.000000	23.848910
1436.000000	23.945294
1435.000000	24.053714
1434.000000	24.169506
1433.000000	24.293788
1432.000000	24.412285
1431.000000	24.565211
1430.000000	24.679510
1429.000000	24.813496
1428.000000	24.998706
1427.000000	25.154712
1426.000000	25.306239
1425.000000	25.448249
1424.000000	25.646522
1423.000000	25.889021
1422.000000	26.074418
1421.000000	26.208683
1420.000000	26.390535
1419.000000	26.675301
1418.000000	26.930117
1417.000000	27.034525
1416.000000	27.164498
1415.000000	27.324143
1414.000000	27.682714
1413.000000	27.929132
1412.000000	28.011427
1411.000000	28.159315
1410.000000	28.408439
1409.000000	28.787910
1408.000000	29.063812
1407.000000	29.353151
1406.000000	29.623175
1405.000000	29.955247
1404.000000	30.342369
1403.000000	30.579736
1402.000000	30.659605
1401.000000	31.045794
1400.000000	31.562703
1399.000000	31.837299
1398.000000	31.741569
1397.000000	31.784862
1396.000000	32.089222
1395.000000	32.530088
1394.000000	32.552668
1393.000000	32.539978
1392.000000	32.747768
1391.000000	32.935964
1390.000000	32.962276
1389.000000	33.045971
1388.000000	33.379162
1387.000000	33.637617
1386.000000	33.763392
1385.000000	33.984058
1384.000000	34.271996
1383.000000	34.580929
1382.000000	34.932035
1381.000000	35.252257
1380.000000	35.277076
1379.000000	35.381205
1378.000000	35.349388
1377.000000	35.392774
1376.000000	35.426364
1375.000000	35.578638
1374.000000	35.724007
1373.000000	35.893542
1372.000000	36.099092
1371.000000	36.438815
1370.000000	36.654816
1369.000000	36.787029
1368.000000	37.049029
1367.000000	37.266243
1366.000000	37.310003
1365.000000	37.469274
1364.000000	37.637036
1363.000000	37.621361
1362.000000	37.750215
1361.000000	38.032276
1360.000000	38.090498
1359.000000	38.023505
1358.000000	38.036288
1357.000000	38.102721
1356.000000	38.257420
1355.000000	38.585107
1354.000000	38.989117
1353.000000	39.277056
1352.000000	39.577591
1351.000000	39.935042
1350.000000	40.239122
1349.000000	40.509427
1348.000000	40.801098
1347.000000	41.089690
1346.000000	41.291508
1345.000000	41.508535
1344.000000	41.755793
1343.000000	41.944549
1342.000000	42.113617
1341.000000	42.302933
1340.000000	42.517534
1339.000000	42.703957
1338.000000	42.873865
1337.000000	43.045173
1336.000000	43.200059
1335.000000	43.356251
1334.000000	43.496862
1333.000000	43.639805
1332.000000	43.767819
1331.000000	43.875773
1330.000000	43.972343
1329.000000	44.081697
1328.000000	44.203180
1327.000000	44.305069
1326.000000	44.374861
1325.000000	44.450064
1324.000000	44.533665
1323.000000	44.629863
1322.000000	44.699468
1321.000000	44.765341
1320.000000	44.846050
1319.000000	44.931238
1318.000000	44.989833
1317.000000	45.037232
1316.000000	45.069889
1315.000000	45.113182
1314.000000	45.164313
1313.000000	45.201635
1312.000000	45.244835
1311.000000	45.286169
1310.000000	45.301658
1309.000000	45.337487
1308.000000	45.364825
1307.000000	45.388991
1306.000000	45.417263
1305.000000	45.407466
1304.000000	45.388338
1303.000000	45.383300
1302.000000	45.376675
1301.000000	45.355775
1300.000000	45.343645
1299.000000	45.358854
1298.000000	45.358014
1297.000000	45.332542
1296.000000	45.307909
1295.000000	45.295686
1294.000000	45.280291
1293.000000	45.255752
1292.000000	45.236811
1291.000000	45.214604
1290.000000	45.190905
1289.000000	45.170285
1288.000000	45.132403
1287.000000	45.090882
1286.000000	45.041990
1285.000000	44.996271
1284.000000	44.950085
1283.000000	44.889250
1282.000000	44.836067
1281.000000	44.784842
1280.000000	44.726527
1279.000000	44.687245
1278.000000	44.638074
1277.000000	44.585543
1276.000000	44.560631
1275.000000	44.540104
1274.000000	44.498116
1273.000000	44.453237
1272.000000	44.424032
1271.000000	44.397347
1270.000000	44.362918
1269.000000	44.333806
1268.000000	44.321490
1267.000000	44.285008
1266.000000	44.225200
1265.000000	44.165484
1264.000000	44.137306
1263.000000	44.115193
1262.000000	44.088601
1261.000000	44.051746
1260.000000	44.024221
1259.000000	43.987179
1258.000000	43.951723
1257.000000	43.921865
1256.000000	43.879692
1255.000000	43.861870
1254.000000	43.811299
1253.000000	43.766699
1252.000000	43.713236
1251.000000	43.681979
1250.000000	43.624969
1249.000000	43.575798
1248.000000	43.525786
1247.000000	43.456834
1246.000000	43.391241
1245.000000	43.304374
1244.000000	43.233089
1243.000000	43.150607
1242.000000	43.042747
1241.000000	42.918185
1240.000000	42.816856
1239.000000	42.718886
1238.000000	42.622968
1237.000000	42.543846
1236.000000	42.430667
1235.000000	42.337735
1234.000000	42.221571
1233.000000	42.114923
1232.000000	41.977859
1231.000000	41.840980
1230.000000	41.704569
1229.000000	41.538859
1228.000000	41.427267
1227.000000	41.303824
1226.000000	41.182715
1225.000000	41.045836
1224.000000	40.925753
1223.000000	40.796806
1222.000000	40.660860
1221.000000	40.559438
1220.000000	40.442527
1219.000000	40.330934
1218.000000	40.202080
1217.000000	40.092820
1216.000000	39.983747
1215.000000	39.881205
1214.000000	39.810667
1213.000000	39.747313
1212.000000	39.670989
1211.000000	39.597745
1210.000000	39.513677
1209.000000	39.467211
1208.000000	39.432875
1207.000000	39.365882
1206.000000	39.309713
1205.000000	39.303555
1204.000000	39.278549
1203.000000	39.269965
1202.000000	39.271364
1201.000000	39.253263
1200.000000	39.184031
1199.000000	39.114239
1198.000000	39.069546
1197.000000	39.004606
1196.000000	38.879391
1195.000000	38.733369
1194.000000	38.529404
1193.000000	38.307059
1192.000000	38.049164
1191.000000	37.765984
1190.000000	37.516300
1189.000000	37.289849
1188.000000	37.073008
1187.000000	36.987448
1186.000000	36.949753
1185.000000	37.019825
1184.000000	37.168926
1183.000000	37.370184
1182.000000	37.655138
1181.000000	37.968455
1180.000000	38.249863
1179.000000	38.520633
1178.000000	38.783193
1177.000000	39.013190
1176.000000	39.231337
1175.000000	39.409456
1174.000000	39.592613
1173.000000	39.753284
1172.000000	39.974883
1171.000000	40.187991
1170.000000	40.401286
1169.000000	40.597786
1168.000000	40.794286
1167.000000	41.007488
1166.000000	41.182808
1165.000000	41.405247
1164.000000	41.628432
1163.000000	41.863280
1162.000000	42.062859
1161.000000	42.250216
1160.000000	42.432813
1159.000000	42.634632
1158.000000	42.824227
1157.000000	42.996841
1156.000000	43.150421
1155.000000	43.225998
1154.000000	43.306520
1153.000000	43.405983
1152.000000	43.429962
1151.000000	43.396839
1150.000000	43.395999
1149.000000	43.380604
1148.000000	43.377618
1147.000000	43.349813
1146.000000	43.429589
1145.000000	43.521121
1144.000000	43.657160
1143.000000	43.816991
1142.000000	43.963106
1141.000000	44.187971
1140.000000	44.399866
1139.000000	44.593101
1138.000000	44.769913
1137.000000	44.957736
1136.000000	45.120833
1135.000000	45.412131
1134.000000	45.688127
1133.000000	45.880335
1132.000000	45.979891
1131.000000	46.110891
1130.000000	46.240865
1129.000000	46.377276
1128.000000	46.483551
1127.000000	46.508090
1126.000000	46.560620
1125.000000	46.601115
1124.000000	46.648980
1123.000000	46.689754
1122.000000	46.747230
1121.000000	46.753482
1120.000000	46.761039
1119.000000	46.763092
1118.000000	46.759546
1117.000000	46.754788
1116.000000	46.715973
1115.000000	46.679957
1114.000000	46.633865
1113.000000	46.600088
1112.000000	46.583667
1111.000000	46.552036
1110.000000	46.554462
1109.000000	46.549890
1108.000000	46.523578
1107.000000	46.482524
1106.000000	46.443803
1105.000000	46.414132
1104.000000	46.360388
1103.000000	46.325959
1102.000000	46.284625
1101.000000	46.261765
1100.000000	46.226776
1099.000000	46.181523
1098.000000	46.129832
1097.000000	46.069743
1096.000000	45.998832
1095.000000	45.964496
1094.000000	45.919803
1093.000000	45.870817
1092.000000	45.816234
1091.000000	45.770235
1090.000000	45.703242
1089.000000	45.652111
1088.000000	45.601913
1087.000000	45.550688
1086.000000	45.480057
1085.000000	45.412411
1084.000000	45.345324
1083.000000	45.291767
1082.000000	45.258458
1081.000000	45.218523
1080.000000	45.172617
1079.000000	45.109356
1078.000000	45.050108
1077.000000	44.999163
1076.000000	44.954470
1075.000000	44.904459
1074.000000	44.846797
1073.000000	44.784562
1072.000000	44.729699
1071.000000	44.670357
1070.000000	44.630236
1069.000000	44.588715
1068.000000	44.535065
1067.000000	44.478709
1066.000000	44.412742
1065.000000	44.338658
1064.000000	44.263548
1063.000000	44.202900
1062.000000	44.151489
1061.000000	44.103064
1060.000000	44.040829
1059.000000	43.979621
1058.000000	43.924851
1057.000000	43.856272
1056.000000	43.810833
1055.000000	43.731057
1054.000000	43.645870
1053.000000	43.587181
1052.000000	43.526253
1051.000000	43.475402
1050.000000	43.419419
1049.000000	43.352239
1048.000000	43.295697
1047.000000	43.236914
1046.000000	43.173281
1045.000000	43.116178
1044.000000	43.055343
1043.000000	42.986111
1042.000000	42.933767
1041.000000	42.899524
1040.000000	42.851845
1039.000000	42.775522
1038.000000	42.705170
1037.000000	42.640416
1036.000000	42.585553
1035.000000	42.531903
1034.000000	42.481332
1033.000000	42.433746
1032.000000	42.377950
1031.000000	42.332790
1030.000000	42.281753
1029.000000	42.207762
1028.000000	42.136197
1027.000000	42.067245
1026.000000	42.011262
1025.000000	41.950894
1024.000000	41.878209
1023.000000	41.798900
1022.000000	41.713806
1021.000000	41.632257
1020.000000	41.568810
1019.000000	41.499298
1018.000000	41.444248
1017.000000	41.383693
1016.000000	41.308490
1015.000000	41.265383
1014.000000	41.232166
1013.000000	41.189712
1012.000000	41.141474
1011.000000	41.096128
1010.000000	41.067203
1009.000000	41.036413
1008.000000	40.995172
1007.000000	40.963821
1006.000000	40.923700
1005.000000	40.869304
1004.000000	40.813880
1003.000000	40.758364
1002.000000	40.711152
1001.000000	40.675696
1000.000000	40.639774
999.000000	40.614208
998.000000	40.596387
997.000000	40.563170
996.000000	40.523796
995.000000	40.476303
994.000000	40.442154
993.000000	40.412576
992.000000	40.372922
991.000000	40.337652
990.000000	40.309941
989.000000	40.284469
988.000000	40.263475
987.000000	40.250132
986.000000	40.220741
985.000000	40.186032
984.000000	40.148803
983.000000	40.126317
982.000000	40.106536
981.000000	40.080971
980.000000	40.042622
979.000000	40.019856
978.000000	39.983281
977.000000	39.969938
976.000000	39.953236
975.000000	39.920486
974.000000	39.882978
973.000000	39.843976
972.000000	39.825689
971.000000	39.771945
970.000000	39.740315
969.000000	39.723893
968.000000	39.674628
967.000000	39.636653
966.000000	39.607449
965.000000	39.600637
964.000000	39.582629
963.000000	39.553892
962.000000	39.536164
961.000000	39.515357
960.000000	39.487832
959.000000	39.466372
958.000000	39.427184
957.000000	39.411602
956.000000	39.389488
955.000000	39.388275
954.000000	39.371387
953.000000	39.341250
952.000000	39.323429
951.000000	39.293198
950.000000	39.260354
949.000000	39.233669
948.000000	39.182352
947.000000	39.160238
946.000000	39.150815
945.000000	39.127302
944.000000	39.090540
943.000000	39.065720
942.000000	39.039409
941.000000	39.041181
940.000000	39.013190
939.000000	38.966631
938.000000	38.939759
937.000000	38.954688
936.000000	38.992569
935.000000	38.999287
934.000000	39.036703
933.000000	39.087367
932.000000	39.095018
931.000000	39.065254
930.000000	39.067213
929.000000	39.065254
928.000000	39.038755
927.000000	38.974748
926.000000	38.967937
925.000000	39.014030
924.000000	39.002366
923.000000	38.996488
922.000000	38.988277
921.000000	39.016922
920.000000	39.046686
919.000000	39.062362
918.000000	39.108547
917.000000	39.114426
916.000000	39.116105
915.000000	39.113026
914.000000	39.159772
913.000000	39.184498
912.000000	39.221540
911.000000	39.252797
910.000000	39.282748
909.000000	39.328187
908.000000	39.381931
907.000000	39.392194
906.000000	39.431849
905.000000	39.570500
904.000000	39.640945
903.000000	39.753097
902.000000	39.831007
901.000000	39.933456
900.000000	39.991211
899.000000	40.092354
898.000000	40.200774
897.000000	40.308915
896.000000	40.390183
895.000000	40.473411
894.000000	40.585843
893.000000	40.701355
892.000000	40.813787
891.000000	40.981643
890.000000	41.101259
889.000000	41.206321
888.000000	41.307836
887.000000	41.437437
886.000000	41.538579
885.000000	41.639162
884.000000	41.779492
883.000000	41.973100
882.000000	42.099621
881.000000	42.241911
880.000000	42.382802
879.000000	42.581448
878.000000	42.717486
877.000000	42.835330
876.000000	42.993016
875.000000	43.214895
874.000000	43.409808
873.000000	43.564881
872.000000	43.746546
871.000000	43.878292
870.000000	44.064995
869.000000	44.275864
868.000000	44.464433
867.000000	44.661213
866.000000	44.843531
865.000000	45.074274
864.000000	45.260137
863.000000	45.486961
862.000000	45.705388
861.000000	45.937624
860.000000	46.135243
859.000000	46.349285
858.000000	46.015533
857.000000	46.164800
856.000000	46.000700
855.000000	45.881100
854.000000	45.846000
853.000000	46.132700
852.000000	46.070600
851.000000	46.253500
850.000000	46.231900
849.000000	46.544200
848.000000	46.429100
847.000000	46.934000
846.000000	46.696300
845.000000	46.790100
844.000000	46.810900
843.000000	46.943800
842.000000	47.412500
841.000000	47.448600
840.000000	47.258900
839.000000	47.394100
838.000000	47.526400
837.000000	47.655300
836.000000	47.613700
835.000000	47.680800
834.000000	47.806000
833.000000	48.039200
832.000000	47.992300
831.000000	48.050000
830.000000	48.179900
829.000000	48.170600
828.000000	48.284000
827.000000	48.402700
826.000000	48.507300
825.000000	48.627900
824.000000	48.689100
823.000000	48.715900
822.000000	48.824700
821.000000	48.881000
820.000000	48.942800
819.000000	49.066400
818.000000	49.180600
817.000000	49.190900
816.000000	49.406800
815.000000	49.513900
814.000000	49.575200
813.000000	49.638800
812.000000	49.787800
811.000000	49.873400
810.000000	49.975000
809.000000	50.067200
808.000000	50.217100
807.000000	50.364600
806.000000	50.518900
805.000000	50.690500
804.000000	50.802900
803.000000	50.885100
802.000000	51.107000
801.000000	51.181000
800.000000	51.186200
799.000000	51.388800
798.000000	51.489800
797.000000	51.474100
796.000000	51.570400
795.000000	51.756300
794.000000	51.775800
793.000000	51.916700
792.000000	52.035700
791.000000	52.097400
790.000000	52.170700
789.000000	52.308500
788.000000	52.386100
787.000000	52.441700
786.000000	52.543100
785.000000	52.539700
784.000000	52.674600
783.000000	52.765300
782.000000	52.808600
781.000000	52.840200
780.000000	52.904900
779.000000	52.967000
778.000000	52.954200
777.000000	52.993700
776.000000	52.998700
775.000000	53.064600
774.000000	53.118900
773.000000	53.128700
772.000000	53.176000
771.000000	53.111600
770.000000	53.110500
769.000000	53.125600
768.000000	53.170800
767.000000	53.200700
766.000000	53.173100
765.000000	53.136200
764.000000	53.168000
763.000000	53.175300
762.000000	53.138900
761.000000	53.151800
760.000000	53.216800
759.000000	53.231800
758.000000	53.132200
757.000000	53.040100
756.000000	53.033500
755.000000	53.014200
754.000000	52.946600
753.000000	52.900800
752.000000	52.898000
751.000000	52.897400
750.000000	52.843600
749.000000	52.754400
748.000000	52.676300
747.000000	52.591700
746.000000	52.550600
745.000000	52.506500
744.000000	52.422600
743.000000	52.366500
742.000000	52.316400
741.000000	52.274400
740.000000	52.188600
739.000000	52.092400
738.000000	51.988100
737.000000	51.886500
736.000000	51.793200
735.000000	51.692800
734.000000	51.624500
733.000000	51.424400
732.000000	51.220200
731.000000	51.159600
730.000000	51.082700
729.000000	50.926400
728.000000	50.777000
727.000000	50.610500
726.000000	50.447100
725.000000	50.264400
724.000000	50.098600
723.000000	49.940100
722.000000	49.729200
721.000000	49.522400
720.000000	49.329800
719.000000	49.136400
718.000000	48.892300
717.000000	48.715600
716.000000	48.534300
715.000000	48.342700
714.000000	48.127300
713.000000	47.870200
712.000000	47.628900
711.000000	47.373400
710.000000	47.163400
709.000000	46.957100
708.000000	46.734000
707.000000	46.491300
706.000000	46.264600
705.000000	46.079400
704.000000	45.858100
703.000000	45.603600
702.000000	45.350300
701.000000	45.161700
700.000000	44.940700
699.000000	44.720900
698.000000	44.494600
697.000000	44.301100
696.000000	44.114500
695.000000	43.910200
694.000000	43.654600
693.000000	43.436400
692.000000	43.255100
691.000000	43.020300
690.000000	42.817500
689.000000	42.559300
688.000000	42.383500
687.000000	42.159800
686.000000	41.959100
685.000000	41.747100
684.000000	41.537400
683.000000	41.322200
682.000000	41.074900
681.000000	40.848000
680.000000	40.575700
679.000000	40.296900
678.000000	40.070500
677.000000	39.854000
676.000000	39.612000
675.000000	39.371900
674.000000	39.164200
673.000000	38.891500
672.000000	38.671100
671.000000	38.468600
670.000000	38.266100
669.000000	38.027700
668.000000	37.822000
667.000000	37.598300
666.000000	37.401500
665.000000	37.181800
664.000000	37.024300
663.000000	36.875300
662.000000	36.703300
661.000000	36.506800
660.000000	36.359800
659.000000	36.225900
658.000000	36.084200
657.000000	35.953500
656.000000	35.764400
655.000000	35.632600
654.000000	35.490400
653.000000	35.346900
652.000000	35.267200
651.000000	35.110000
650.000000	35.010200
649.000000	34.883000
648.000000	34.743700
647.000000	34.590300
646.000000	34.436700
645.000000	34.301700
644.000000	34.163100
643.000000	34.045200
642.000000	33.867800
641.000000	33.712700
640.000000	33.596900
639.000000	33.463400
638.000000	33.338200
637.000000	33.208800
636.000000	33.105300
635.000000	32.988700
634.000000	32.844100
633.000000	32.702000
632.000000	32.600000
631.000000	32.492800
630.000000	32.375300
629.000000	32.270700
628.000000	32.160200
627.000000	32.028300
626.000000	31.913800
625.000000	31.798200
624.000000	31.638200
623.000000	31.509500
622.000000	31.396800
621.000000	31.244200
620.000000	31.151200
619.000000	30.988800
618.000000	30.865100
617.000000	30.765100
616.000000	30.645200
615.000000	30.505300
614.000000	30.372800
613.000000	30.256400
612.000000	30.127200
611.000000	30.002400
610.000000	29.876800
609.000000	29.740200
608.000000	29.591800
607.000000	29.505900
606.000000	29.361800
605.000000	29.239700
604.000000	29.119400
603.000000	28.965200
602.000000	28.853300
601.000000	28.709000
600.000000	28.586300
599.000000	28.461700
598.000000	28.369300
597.000000	28.282400
596.000000	28.210500
595.000000	28.142500
594.000000	28.104100
593.000000	28.110800
592.000000	28.084200
591.000000	28.088700
590.000000	28.132300
589.000000	28.134600
588.000000	28.200400
587.000000	28.264300
586.000000	28.337300
585.000000	28.408100
584.000000	28.499400
583.000000	28.623000
582.000000	28.705600
581.000000	28.830600
580.000000	28.990600
579.000000	29.086000
578.000000	29.164400
577.000000	29.238600
576.000000	29.279300
575.000000	29.345900
574.000000	29.462300
573.000000	29.524900
572.000000	29.611700
571.000000	29.692500
570.000000	29.831500
569.000000	29.920700
568.000000	30.000100
567.000000	30.092400
566.000000	30.162700
565.000000	30.224500
564.000000	30.313800
563.000000	30.412500
562.000000	30.463600
561.000000	30.537800
560.000000	30.648000
559.000000	30.961500
558.000000	31.058100
557.000000	31.158600
556.000000	31.258400
555.000000	31.328300
554.000000	31.393200
553.000000	31.466700
552.000000	31.521800
551.000000	31.570200
550.000000	31.629800
549.000000	31.643600
548.000000	31.707400
547.000000	31.722100
546.000000	31.739200
545.000000	31.772100
544.000000	31.778200
543.000000	31.767600
542.000000	31.736700
541.000000	31.746800
540.000000	31.758400
539.000000	31.735500
538.000000	31.677600
537.000000	31.621600
536.000000	31.561500
535.000000	31.553000
534.000000	31.485900
533.000000	31.401100
532.000000	31.331900
531.000000	31.254800
530.000000	31.173600
529.000000	31.084200
528.000000	30.977300
527.000000	30.844800
526.000000	30.683300
525.000000	30.557300
524.000000	30.422800
523.000000	30.243000
522.000000	30.067700
521.000000	29.853400
520.000000	29.616400
519.000000	29.387600
518.000000	29.174200
517.000000	28.978800
516.000000	28.763000
515.000000	28.529000
514.000000	28.305300
513.000000	28.078900
512.000000	27.842000
511.000000	27.631700
510.000000	27.434500
509.000000	27.232500
508.000000	27.013700
507.000000	26.788300
506.000000	26.551600
505.000000	26.349600
504.000000	26.146300
503.000000	25.909100
502.000000	25.652600
501.000000	25.368000
500.000000	25.113400
499.000000	24.881100
498.000000	24.649900
497.000000	24.401700
496.000000	24.170500
495.000000	23.939200
494.000000	23.675600
493.000000	23.434600
492.000000	23.153800
491.000000	22.865600
490.000000	22.580900
489.000000	22.315000
488.000000	22.037700
487.000000	21.749700
486.000000	21.444600
485.000000	21.142400
484.000000	20.836600
483.000000	20.510000
482.000000	20.092500
481.000000	19.596400
480.000000	19.113500
479.000000	18.709300
478.000000	18.378900
477.000000	18.055200
476.000000	17.722800
475.000000	17.379800
474.000000	17.050900
473.000000	16.732500
472.000000	16.428800
471.000000	16.122200
470.000000	15.827100
469.000000	15.544200
468.000000	15.292800
467.000000	15.046900
466.000000	14.800800
465.000000	14.570600
464.000000	14.340400
463.000000	14.123500
462.000000	13.932300
461.000000	13.762500
460.000000	13.610400
459.000000	13.466800
458.000000	13.309800
457.000000	13.163500
456.000000	13.046300
455.000000	12.947300
454.000000	12.844600
453.000000	12.746900
452.000000	12.650100
451.000000	12.556700
450.000000	12.473700
449.000000	12.402000
448.000000	12.334900
447.000000	12.278000
446.000000	12.229500
445.000000	12.216800
444.000000	12.204800
443.000000	12.144800
442.000000	12.068300
441.000000	12.009000
440.000000	11.971800
439.000000	11.931800
438.000000	11.876900
437.000000	11.831400
436.000000	11.807100
435.000000	11.784100
434.000000	11.757900
433.000000	11.707600
432.000000	11.667600
431.000000	11.632400
430.000000	11.603300
429.000000	11.552000
428.000000	11.499400
427.000000	11.458700
426.000000	11.397300
425.000000	11.326100
424.000000	11.258700
423.000000	11.189700
422.000000	11.111800
421.000000	11.028100
420.000000	10.930700
419.000000	10.820000
418.000000	10.710600
417.000000	10.600300
416.000000	10.482300
415.000000	10.370200
414.000000	10.246100
413.000000	10.119900
412.000000	9.989400
411.000000	9.857500
410.000000	9.704200
409.000000	9.557400
408.000000	9.411200
407.000000	9.242300
406.000000	9.083100
405.000000	8.928600
404.000000	8.765300
403.000000	8.612200
402.000000	8.452700
401.000000	8.285600
400.000000	8.106200
399.000000	7.932000
398.000000	7.765600
397.000000	7.588400
396.000000	7.420500
395.000000	7.250900
394.000000	7.074200
393.000000	6.919200
392.000000	6.747600
391.000000	6.582900
390.000000	6.412400
389.000000	6.259100
388.000000	6.113600
387.000000	5.971100
386.000000	5.823500
385.000000	5.677400
384.000000	5.542600
383.000000	5.415500
382.000000	5.280800
381.000000	5.156300
380.000000	5.035200
379.000000	4.937200
378.000000	4.828300
377.000000	4.742700
376.000000	4.793400
375.000000	4.488800
374.000000	4.399700
373.000000	4.287500
372.000000	4.221800
371.000000	4.169500
370.000000	4.172100
369.000000	4.115300
368.000000	3.980000
367.000000	3.964400
366.000000	3.944600
365.000000	3.837000
364.000000	3.846400
363.000000	3.792700
362.000000	3.749700
361.000000	3.778900
360.000000	3.818900
359.000000	3.757300
358.000000	3.613500
357.000000	3.619800
356.000000	3.572500
355.000000	3.604700
354.000000	3.630300
353.000000	3.522500
352.000000	3.599900
351.000000	3.488000
350.000000	3.450200
349.000000	3.412100
348.000000	3.418500
347.000000	3.442800
346.000000	3.441900
345.000000	3.470300
344.000000	3.288000
343.000000	3.429800
342.000000	3.321400
341.000000	3.308400
340.000000	3.440700
339.000000	3.496500
338.000000	3.421100
337.000000	3.331500
336.000000	3.314100
335.000000	3.355100
334.000000	3.320000
333.000000	3.421100
332.000000	3.425400
331.000000	3.349600
330.000000	3.374800
329.000000	3.320800
328.000000	3.462900
327.000000	3.482000
326.000000	3.418800
325.000000	3.282000
324.000000	3.559000
323.000000	3.434700
322.000000	3.442800
321.000000	3.419000
320.000000	3.436000
319.000000	3.479200
318.000000	3.427400
317.000000	3.443600
316.000000	3.222900
315.000000	3.181400
314.000000	3.196900
313.000000	3.139600
312.000000	3.161300
311.000000	3.234300
310.000000	3.162800
309.000000	3.183000
308.000000	3.209900
307.000000	3.222800
306.000000	3.127600
305.000000	3.130300
304.000000	3.109100
303.000000	3.166400
302.000000	3.145800
301.000000	3.169600
300.000000	3.183700
299.000000	3.152200
298.000000	3.152500
297.000000	3.174100
296.000000	3.156000
295.000000	3.169500
294.000000	3.184800
293.000000	3.154000
292.000000	3.175700
291.000000	3.206400
290.000000	3.200200
289.000000	3.162400
288.000000	3.174300
287.000000	3.175300
286.000000	3.218800
285.000000	3.230800
284.000000	3.223100
283.000000	3.200100
282.000000	3.220500
281.000000	3.255300
280.000000	3.138000
279.000000	3.229100
278.000000	3.193800
277.000000	3.181600
276.000000	3.196000
275.000000	3.243000
274.000000	3.255700
273.000000	3.246700
272.000000	3.218700
271.000000	3.246200
270.000000	3.218200
269.000000	3.283900
268.000000	3.268800
267.000000	3.258900
266.000000	3.258200
265.000000	3.270900
264.000000	3.325200
263.000000	3.319500
262.000000	3.322000
261.000000	3.300200
260.000000	3.344600
259.000000	3.375200
258.000000	3.375300
257.000000	3.356400
256.000000	3.406700
255.000000	3.392100
254.000000	3.398900
253.000000	3.390400
252.000000	3.408700
251.000000	3.398700
250.000000	3.375800
