PE UV       SUBTECH     SPECTRUM    ASCII       PEDS        4.00        
   -1
CICIMAUCR0233-3.ASC
24/06/14
14:14:12.00
24/06/14
14:14:12.00
Vinicio Soto Monge
C. resplendens. Sex F. Ventral 
250,000000
1
Lambda 1050
1050L1511233
PerkinElmer UV WinLab 6.3.2.0749 / 2.02.05 Lambda 900 UV/VIS/NIR, Aug  7 2015 09:38:08

0
0
3350/servo 860,8/2
0
0
UV/VIS
1
1
1
DoubleDePol,CommonBeamDepol,RBeamAtt,SBeamAtt,60mm sphere, WB InGaAs Detector
0
0
0
0
Program
Program
3350/servo 860,8/2
3350/0,2 860,8/0,2
3350/0,2 860,8/0,2
0
15.00
 
 
 
0
 
860,8
319,2
860,8
Front
100
on
S:100 R:100
0
0
0
0
 
0
 
 
 
0
 
 
0
0
0
0
0
 
 
 
 
0
0


0
0
#HDR
-1
-1
#GR
nm
%R
1.0
0.0
2500,000000
-1,000000
2251
8
50,153800
4,151800
#DATA
2482.000000	5.047061
2481.000000	5.095983
2480.000000	5.043838
2479.000000	5.091033
2478.000000	5.055234
2477.000000	5.009304
2476.000000	5.043032
2475.000000	5.055118
2474.000000	4.985131
2473.000000	4.934251
2472.000000	4.954741
2471.000000	4.974886
2470.000000	4.965332
2469.000000	4.964526
2468.000000	4.933561
2467.000000	4.989160
2466.000000	5.006887
2465.000000	4.970512
2464.000000	4.974080
2463.000000	5.004239
2462.000000	4.986857
2461.000000	4.967173
2460.000000	4.949446
2459.000000	4.950367
2458.000000	4.943000
2457.000000	4.956238
2456.000000	4.998138
2455.000000	5.020355
2454.000000	5.038542
2453.000000	5.018398
2452.000000	5.015635
2451.000000	5.011952
2450.000000	5.066860
2449.000000	5.030945
2448.000000	5.045794
2447.000000	5.064097
2446.000000	5.097825
2445.000000	5.080213
2444.000000	5.121423
2443.000000	5.119351
2442.000000	5.112674
2441.000000	5.139265
2440.000000	5.184274
2439.000000	5.169194
2438.000000	5.195094
2437.000000	5.197166
2436.000000	5.207181
2435.000000	5.232735
2434.000000	5.260017
2433.000000	5.261859
2432.000000	5.270032
2431.000000	5.292939
2430.000000	5.278089
2429.000000	5.284190
2428.000000	5.311817
2427.000000	5.318724
2426.000000	5.301572
2425.000000	5.312623
2424.000000	5.326551
2423.000000	5.335760
2422.000000	5.324019
2421.000000	5.359013
2420.000000	5.371099
2419.000000	5.348307
2418.000000	5.363042
2417.000000	5.367876
2416.000000	5.383647
2415.000000	5.406439
2414.000000	5.392395
2413.000000	5.411043
2412.000000	5.429806
2411.000000	5.433720
2410.000000	5.443504
2409.000000	5.461577
2408.000000	5.462383
2407.000000	5.452023
2406.000000	5.463189
2405.000000	5.471016
2404.000000	5.472052
2403.000000	5.476657
2402.000000	5.496686
2401.000000	5.509463
2400.000000	5.530759
2399.000000	5.537551
2398.000000	5.564602
2397.000000	5.564947
2396.000000	5.573580
2395.000000	5.573005
2394.000000	5.574156
2393.000000	5.579796
2392.000000	5.586358
2391.000000	5.597063
2390.000000	5.615251
2389.000000	5.626071
2388.000000	5.628143
2387.000000	5.623539
2386.000000	5.629064
2385.000000	5.633208
2384.000000	5.645410
2383.000000	5.652892
2382.000000	5.658993
2381.000000	5.669814
2380.000000	5.667626
2379.000000	5.662907
2378.000000	5.665900
2377.000000	5.677986
2376.000000	5.672806
2375.000000	5.664518
2374.000000	5.656000
2373.000000	5.651626
2372.000000	5.644489
2371.000000	5.648748
2370.000000	5.654389
2369.000000	5.653813
2368.000000	5.649899
2367.000000	5.634589
2366.000000	5.620431
2365.000000	5.610186
2364.000000	5.622157
2363.000000	5.622042
2362.000000	5.618819
2361.000000	5.607078
2360.000000	5.596372
2359.000000	5.601207
2358.000000	5.591883
2357.000000	5.597408
2356.000000	5.589005
2355.000000	5.565407
2354.000000	5.556774
2353.000000	5.557695
2352.000000	5.550213
2351.000000	5.560573
2350.000000	5.564487
2349.000000	5.564717
2348.000000	5.577955
2347.000000	5.582099
2346.000000	5.586012
2345.000000	5.591077
2344.000000	5.590041
2343.000000	5.594646
2342.000000	5.612833
2341.000000	5.629640
2340.000000	5.640460
2339.000000	5.637582
2338.000000	5.652317
2337.000000	5.656921
2336.000000	5.652777
2335.000000	5.650935
2334.000000	5.666590
2333.000000	5.670619
2332.000000	5.643798
2331.000000	5.637813
2330.000000	5.646676
2329.000000	5.632748
2328.000000	5.629064
2327.000000	5.618819
2326.000000	5.606617
2325.000000	5.614560
2324.000000	5.602819
2323.000000	5.593495
2322.000000	5.573580
2321.000000	5.553666
2320.000000	5.545263
2319.000000	5.542155
2318.000000	5.527881
2317.000000	5.486786
2316.000000	5.459850
2315.000000	5.453749
2314.000000	5.450181
2313.000000	5.425087
2312.000000	5.396194
2311.000000	5.385488
2310.000000	5.375128
2309.000000	5.358667
2308.000000	5.329199
2307.000000	5.329774
2306.000000	5.338178
2305.000000	5.341516
2304.000000	5.330120
2303.000000	5.343358
2302.000000	5.332997
2301.000000	5.342667
2300.000000	5.349113
2299.000000	5.360624
2298.000000	5.364193
2297.000000	5.377776
2296.000000	5.395273
2295.000000	5.428310
2294.000000	5.434641
2293.000000	5.459850
2292.000000	5.455706
2291.000000	5.465491
2290.000000	5.479649
2289.000000	5.487477
2288.000000	5.491045
2287.000000	5.484484
2286.000000	5.521780
2285.000000	5.503247
2284.000000	5.490700
2283.000000	5.491045
2282.000000	5.485865
2281.000000	5.445922
2280.000000	5.460541
2279.000000	5.456052
2278.000000	5.451562
2277.000000	5.461117
2276.000000	5.446037
2275.000000	5.438555
2274.000000	5.426813
2273.000000	5.410928
2272.000000	5.406208
2271.000000	5.389172
2270.000000	5.414957
2269.000000	5.415993
2268.000000	5.428655
2267.000000	5.441432
2266.000000	5.455016
2265.000000	5.467678
2264.000000	5.490009
2263.000000	5.508427
2262.000000	5.544572
2261.000000	5.593610
2260.000000	5.620776
2259.000000	5.668662
2258.000000	5.703196
2257.000000	5.771342
2256.000000	5.820840
2255.000000	5.840754
2254.000000	5.904411
2253.000000	5.966110
2252.000000	6.006399
2251.000000	6.057739
2250.000000	6.136130
2249.000000	6.175959
2248.000000	6.212794
2247.000000	6.269544
2246.000000	6.331934
2245.000000	6.365432
2244.000000	6.385001
2243.000000	6.437146
2242.000000	6.469838
2241.000000	6.499537
2240.000000	6.557898
2239.000000	6.555941
2238.000000	6.580690
2237.000000	6.623166
2236.000000	6.622130
2235.000000	6.665067
2234.000000	6.676233
2233.000000	6.684521
2232.000000	6.705011
2231.000000	6.713644
2230.000000	6.736321
2229.000000	6.745530
2228.000000	6.765789
2227.000000	6.750710
2226.000000	6.773041
2225.000000	6.738393
2224.000000	6.736781
2223.000000	6.736321
2222.000000	6.765905
2221.000000	6.723659
2220.000000	6.721126
2219.000000	6.743458
2218.000000	6.705356
2217.000000	6.726652
2216.000000	6.713184
2215.000000	6.721817
2214.000000	6.706622
2213.000000	6.686823
2212.000000	6.709270
2211.000000	6.686132
2210.000000	6.687974
2209.000000	6.689931
2208.000000	6.666103
2207.000000	6.640433
2206.000000	6.661383
2205.000000	6.639512
2204.000000	6.640894
2203.000000	6.640663
2202.000000	6.623051
2201.000000	6.639858
2200.000000	6.610159
2199.000000	6.653556
2198.000000	6.618562
2197.000000	6.591396
2196.000000	6.616605
2195.000000	6.638822
2194.000000	6.621440
2193.000000	6.592892
2192.000000	6.598187
2191.000000	6.588863
2190.000000	6.591050
2189.000000	6.588518
2188.000000	6.620519
2187.000000	6.597497
2186.000000	6.572287
2185.000000	6.576777
2184.000000	6.599684
2183.000000	6.580115
2182.000000	6.598993
2181.000000	6.572057
2180.000000	6.576316
2179.000000	6.588403
2178.000000	6.568949
2177.000000	6.558704
2176.000000	6.554790
2175.000000	6.560776
2174.000000	6.565956
2173.000000	6.577122
2172.000000	6.571712
2171.000000	6.552143
2170.000000	6.562618
2169.000000	6.565841
2168.000000	6.566301
2167.000000	6.578849
2166.000000	6.585295
2165.000000	6.588288
2164.000000	6.604288
2163.000000	6.606590
2162.000000	6.588518
2161.000000	6.616260
2160.000000	6.630534
2159.000000	6.618677
2158.000000	6.633642
2157.000000	6.648376
2156.000000	6.660117
2155.000000	6.657815
2154.000000	6.678765
2153.000000	6.680031
2152.000000	6.686247
2151.000000	6.719515
2150.000000	6.726306
2149.000000	6.744379
2148.000000	6.746451
2147.000000	6.751055
2146.000000	6.770624
2145.000000	6.792610
2144.000000	6.804006
2143.000000	6.816554
2142.000000	6.818280
2141.000000	6.825532
2140.000000	6.830022
2139.000000	6.844295
2138.000000	6.846943
2137.000000	6.855231
2136.000000	6.869390
2135.000000	6.879404
2134.000000	6.876757
2133.000000	6.896326
2132.000000	6.901276
2131.000000	6.904614
2130.000000	6.892642
2129.000000	6.887923
2128.000000	6.896671
2127.000000	6.895175
2126.000000	6.889419
2125.000000	6.891031
2124.000000	6.908067
2123.000000	6.895520
2122.000000	6.895865
2121.000000	6.895405
2120.000000	6.899089
2119.000000	6.878829
2118.000000	6.869505
2117.000000	6.864785
2116.000000	6.852814
2115.000000	6.836928
2114.000000	6.840497
2113.000000	6.818511
2112.000000	6.800208
2111.000000	6.808150
2110.000000	6.808611
2109.000000	6.793646
2108.000000	6.792495
2107.000000	6.787430
2106.000000	6.792150
2105.000000	6.765214
2104.000000	6.747947
2103.000000	6.737472
2102.000000	6.731716
2101.000000	6.726421
2100.000000	6.727457
2099.000000	6.707658
2098.000000	6.690161
2097.000000	6.690391
2096.000000	6.696377
2095.000000	6.700176
2094.000000	6.674391
2093.000000	6.665988
2092.000000	6.664261
2091.000000	6.640088
2090.000000	6.649066
2089.000000	6.653210
2088.000000	6.641469
2087.000000	6.622015
2086.000000	6.611310
2085.000000	6.624202
2084.000000	6.621094
2083.000000	6.609813
2082.000000	6.595079
2081.000000	6.585295
2080.000000	6.584719
2079.000000	6.573323
2078.000000	6.565726
2077.000000	6.564229
2076.000000	6.540401
2075.000000	6.513811
2074.000000	6.505062
2073.000000	6.497119
2072.000000	6.488256
2071.000000	6.474097
2070.000000	6.469608
2069.000000	6.454989
2068.000000	6.438067
2067.000000	6.427592
2066.000000	6.426786
2065.000000	6.424024
2064.000000	6.397203
2063.000000	6.390987
2062.000000	6.371187
2061.000000	6.348280
2060.000000	6.345863
2059.000000	6.333086
2058.000000	6.328481
2057.000000	6.317315
2056.000000	6.310754
2055.000000	6.318351
2054.000000	6.305114
2053.000000	6.307186
2052.000000	6.315358
2051.000000	6.329402
2050.000000	6.335503
2049.000000	6.342064
2048.000000	6.343215
2047.000000	6.358295
2046.000000	6.374641
2045.000000	6.387533
2044.000000	6.392713
2043.000000	6.418038
2042.000000	6.442902
2041.000000	6.448312
2040.000000	6.466615
2039.000000	6.488831
2038.000000	6.516688
2037.000000	6.531653
2036.000000	6.531883
2035.000000	6.538444
2034.000000	6.558359
2033.000000	6.568949
2032.000000	6.581726
2031.000000	6.582532
2030.000000	6.578158
2029.000000	6.585525
2028.000000	6.585755
2027.000000	6.610504
2026.000000	6.619598
2025.000000	6.601756
2024.000000	6.596115
2023.000000	6.602792
2022.000000	6.612691
2021.000000	6.607396
2020.000000	6.602101
2019.000000	6.608202
2018.000000	6.609238
2017.000000	6.596115
2016.000000	6.604403
2015.000000	6.594043
2014.000000	6.577122
2013.000000	6.577928
2012.000000	6.562963
2011.000000	6.552143
2010.000000	6.536257
2009.000000	6.538099
2008.000000	6.519451
2007.000000	6.497004
2006.000000	6.494817
2005.000000	6.482846
2004.000000	6.472716
2003.000000	6.446240
2002.000000	6.446125
2001.000000	6.437377
2000.000000	6.415390
1999.000000	6.394440
1998.000000	6.392713
1997.000000	6.370036
1996.000000	6.334812
1995.000000	6.342640
1994.000000	6.313747
1993.000000	6.304538
1992.000000	6.283703
1991.000000	6.229370
1990.000000	6.206463
1989.000000	6.209226
1988.000000	6.190578
1987.000000	6.149943
1986.000000	6.139468
1985.000000	6.144303
1984.000000	6.102517
1983.000000	6.076963
1982.000000	6.068905
1981.000000	6.063725
1980.000000	6.053365
1979.000000	6.025047
1978.000000	5.991320
1977.000000	5.969564
1976.000000	5.949304
1975.000000	5.942397
1974.000000	5.925821
1973.000000	5.911087
1972.000000	5.888525
1971.000000	5.894051
1970.000000	5.857215
1969.000000	5.848236
1968.000000	5.840639
1967.000000	5.812667
1966.000000	5.767888
1965.000000	5.786191
1964.000000	5.767428
1963.000000	5.759025
1962.000000	5.766277
1961.000000	5.733125
1960.000000	5.729556
1959.000000	5.730362
1958.000000	5.700894
1957.000000	5.700894
1956.000000	5.679483
1955.000000	5.671886
1954.000000	5.660605
1953.000000	5.634474
1952.000000	5.635741
1951.000000	5.614100
1950.000000	5.624460
1949.000000	5.589236
1948.000000	5.602358
1947.000000	5.594761
1946.000000	5.593149
1945.000000	5.561609
1944.000000	5.559537
1943.000000	5.565868
1942.000000	5.563566
1941.000000	5.563566
1940.000000	5.569206
1939.000000	5.579106
1938.000000	5.574962
1937.000000	5.560458
1936.000000	5.554011
1935.000000	5.567595
1934.000000	5.568285
1933.000000	5.574386
1932.000000	5.562069
1931.000000	5.558155
1930.000000	5.585667
1929.000000	5.577264
1928.000000	5.622273
1927.000000	5.627337
1926.000000	5.643338
1925.000000	5.666360
1924.000000	5.663367
1923.000000	5.681440
1922.000000	5.683742
1921.000000	5.742104
1920.000000	5.775256
1919.000000	5.786767
1918.000000	5.824638
1917.000000	5.843977
1916.000000	5.860323
1915.000000	5.891288
1914.000000	5.910857
1913.000000	5.961851
1912.000000	5.996154
1911.000000	6.054055
1910.000000	6.064070
1909.000000	6.108849
1908.000000	6.146260
1907.000000	6.168706
1906.000000	6.245946
1905.000000	6.315243
1904.000000	6.375562
1903.000000	6.445549
1902.000000	6.492860
1901.000000	6.550531
1900.000000	6.626044
1899.000000	6.690622
1898.000000	6.756465
1897.000000	6.862253
1896.000000	6.913477
1895.000000	6.953651
1894.000000	7.035611
1893.000000	7.121484
1892.000000	7.238207
1891.000000	7.355275
1890.000000	7.498474
1889.000000	7.626593
1888.000000	7.772669
1887.000000	7.914602
1886.000000	8.015209
1885.000000	8.205833
1884.000000	8.397724
1883.000000	8.593759
1882.000000	8.820529
1881.000000	9.042003
1880.000000	9.260369
1879.000000	9.458706
1878.000000	9.668439
1877.000000	9.893712
1876.000000	10.144195
1875.000000	10.394332
1874.000000	10.623289
1873.000000	10.888620
1872.000000	11.158442
1871.000000	11.415601
1870.000000	11.639262
1869.000000	11.896536
1868.000000	12.107190
1867.000000	12.257986
1866.000000	12.407861
1865.000000	12.507087
1864.000000	12.616788
1863.000000	12.728101
1862.000000	12.821802
1861.000000	12.934841
1860.000000	13.071479
1859.000000	13.179223
1858.000000	13.284895
1857.000000	13.403575
1856.000000	13.478973
1855.000000	13.519377
1854.000000	13.565422
1853.000000	13.630920
1852.000000	13.663612
1851.000000	13.679497
1850.000000	13.692735
1849.000000	13.700217
1848.000000	13.721398
1847.000000	13.778723
1846.000000	13.820048
1845.000000	13.807041
1844.000000	13.773198
1843.000000	13.718175
1842.000000	13.700102
1841.000000	13.723239
1840.000000	13.743154
1839.000000	13.780335
1838.000000	13.771011
1837.000000	13.771356
1836.000000	13.756161
1835.000000	13.734866
1834.000000	13.719671
1833.000000	13.685368
1832.000000	13.629999
1831.000000	13.577393
1830.000000	13.556098
1829.000000	13.540903
1828.000000	13.517535
1827.000000	13.462973
1826.000000	13.426828
1825.000000	13.396553
1824.000000	13.357761
1823.000000	13.313328
1822.000000	13.279830
1821.000000	13.257499
1820.000000	13.254851
1819.000000	13.271888
1818.000000	13.235858
1817.000000	13.210418
1816.000000	13.185439
1815.000000	13.164028
1814.000000	13.165985
1813.000000	13.166561
1812.000000	13.151366
1811.000000	13.125351
1810.000000	13.098760
1809.000000	13.083450
1808.000000	13.065032
1807.000000	13.037406
1806.000000	13.009318
1805.000000	12.987793
1804.000000	12.950496
1803.000000	12.916539
1802.000000	12.890408
1801.000000	12.860825
1800.000000	12.842177
1799.000000	12.806492
1798.000000	12.758951
1797.000000	12.723612
1796.000000	12.700590
1795.000000	12.669509
1794.000000	12.628645
1793.000000	12.592155
1792.000000	12.560038
1791.000000	12.541045
1790.000000	12.509389
1789.000000	12.472093
1788.000000	12.442049
1787.000000	12.403026
1786.000000	12.359514
1785.000000	12.335686
1784.000000	12.310132
1783.000000	12.278246
1782.000000	12.228863
1781.000000	12.189840
1780.000000	12.163595
1779.000000	12.115939
1778.000000	12.078642
1777.000000	12.042152
1776.000000	11.997489
1775.000000	11.964107
1774.000000	11.921170
1773.000000	11.867528
1772.000000	11.805368
1771.000000	11.751496
1770.000000	11.710631
1769.000000	11.667464
1768.000000	11.597016
1767.000000	11.538770
1766.000000	11.499862
1765.000000	11.463832
1764.000000	11.436321
1763.000000	11.392809
1762.000000	11.365757
1761.000000	11.389355
1760.000000	11.414910
1759.000000	11.432982
1758.000000	11.470509
1757.000000	11.517244
1756.000000	11.549821
1755.000000	11.583433
1754.000000	11.634658
1753.000000	11.669652
1752.000000	11.691868
1751.000000	11.701307
1750.000000	11.700386
1749.000000	11.698429
1748.000000	11.697854
1747.000000	11.694516
1746.000000	11.662400
1745.000000	11.614398
1744.000000	11.570656
1743.000000	11.523920
1742.000000	11.468552
1741.000000	11.389355
1740.000000	11.292547
1739.000000	11.208400
1738.000000	11.124138
1737.000000	11.009027
1736.000000	10.945601
1735.000000	10.862375
1734.000000	10.792618
1733.000000	10.756242
1732.000000	10.752674
1731.000000	10.751983
1730.000000	10.758084
1729.000000	10.808388
1728.000000	10.847756
1727.000000	10.895412
1726.000000	10.942493
1725.000000	11.008682
1724.000000	11.050582
1723.000000	11.092368
1722.000000	11.118383
1721.000000	11.135880
1720.000000	11.189176
1719.000000	11.193090
1718.000000	11.224746
1717.000000	11.243279
1716.000000	11.293467
1715.000000	11.346304
1714.000000	11.396147
1713.000000	11.451861
1712.000000	11.471084
1711.000000	11.510568
1710.000000	11.525992
1709.000000	11.541302
1708.000000	11.567202
1707.000000	11.589189
1706.000000	11.564440
1705.000000	11.551317
1704.000000	11.526453
1703.000000	11.463832
1702.000000	11.440234
1701.000000	11.385902
1700.000000	11.328346
1699.000000	11.267337
1698.000000	11.187104
1697.000000	11.091447
1696.000000	11.032855
1695.000000	11.005113
1694.000000	10.959759
1693.000000	10.964939
1692.000000	11.003502
1691.000000	11.066813
1690.000000	11.122527
1689.000000	11.201839
1688.000000	11.277237
1687.000000	11.346304
1686.000000	11.395801
1685.000000	11.405586
1684.000000	11.468091
1683.000000	11.490999
1682.000000	11.593218
1681.000000	11.729279
1680.000000	11.906781
1679.000000	12.152889
1678.000000	12.407055
1677.000000	12.716705
1676.000000	12.981231
1675.000000	13.216749
1674.000000	13.472181
1673.000000	13.678691
1672.000000	13.866668
1671.000000	14.048199
1670.000000	14.203369
1669.000000	14.329416
1668.000000	14.451780
1667.000000	14.544675
1666.000000	14.610634
1665.000000	14.692132
1664.000000	14.778236
1663.000000	14.820251
1662.000000	14.876196
1661.000000	14.901060
1660.000000	14.950788
1659.000000	14.968745
1658.000000	14.976227
1657.000000	15.000976
1656.000000	15.028948
1655.000000	15.013063
1654.000000	15.025956
1653.000000	15.028143
1652.000000	15.012603
1651.000000	15.016977
1650.000000	14.978530
1649.000000	14.971393
1648.000000	14.931794
1647.000000	14.925693
1646.000000	14.880800
1645.000000	14.843159
1644.000000	14.810237
1643.000000	14.764998
1642.000000	14.746925
1641.000000	14.708708
1640.000000	14.656793
1639.000000	14.610979
1638.000000	14.587957
1637.000000	14.527523
1636.000000	14.465593
1635.000000	14.441995
1634.000000	14.392958
1633.000000	14.352899
1632.000000	14.295919
1631.000000	14.252177
1630.000000	14.197614
1629.000000	14.156634
1628.000000	14.102762
1627.000000	14.046703
1626.000000	13.999162
1625.000000	13.954498
1624.000000	13.886813
1623.000000	13.839157
1622.000000	13.787702
1621.000000	13.729455
1620.000000	13.698260
1619.000000	13.636330
1618.000000	13.575206
1617.000000	13.520528
1616.000000	13.484613
1615.000000	13.445130
1614.000000	13.417849
1613.000000	13.363056
1612.000000	13.315630
1611.000000	13.276607
1610.000000	13.249326
1609.000000	13.196144
1608.000000	13.124890
1607.000000	13.088630
1606.000000	13.042701
1605.000000	12.990901
1604.000000	12.960741
1603.000000	12.896739
1602.000000	12.842407
1601.000000	12.819960
1600.000000	12.792218
1599.000000	12.745598
1598.000000	12.695525
1597.000000	12.637508
1596.000000	12.590428
1595.000000	12.542542
1594.000000	12.505591
1593.000000	12.477849
1592.000000	12.435373
1591.000000	12.409012
1590.000000	12.373788
1589.000000	12.324520
1588.000000	12.266619
1587.000000	12.240950
1586.000000	12.230129
1585.000000	12.189840
1584.000000	12.162559
1583.000000	12.132054
1582.000000	12.088772
1581.000000	12.061491
1580.000000	12.029605
1579.000000	12.008194
1578.000000	11.979416
1577.000000	11.964452
1576.000000	11.937055
1575.000000	11.909429
1574.000000	11.902292
1573.000000	11.874205
1572.000000	11.863384
1571.000000	11.871557
1570.000000	11.838865
1569.000000	11.822865
1568.000000	11.815728
1567.000000	11.828736
1566.000000	11.797080
1565.000000	11.781655
1564.000000	11.773482
1563.000000	11.765079
1562.000000	11.763467
1561.000000	11.755410
1560.000000	11.738143
1559.000000	11.732042
1558.000000	11.728473
1557.000000	11.717308
1556.000000	11.684271
1555.000000	11.683120
1554.000000	11.678515
1553.000000	11.644903
1552.000000	11.609794
1551.000000	11.595174
1550.000000	11.580555
1549.000000	11.550741
1548.000000	11.531172
1547.000000	11.540612
1546.000000	11.522884
1545.000000	11.485013
1544.000000	11.461415
1543.000000	11.441961
1542.000000	11.412032
1541.000000	11.401327
1540.000000	11.383945
1539.000000	11.360692
1538.000000	11.361728
1537.000000	11.347915
1536.000000	11.324317
1535.000000	11.304979
1534.000000	11.282417
1533.000000	11.260776
1532.000000	11.240401
1531.000000	11.218300
1530.000000	11.189867
1529.000000	11.157636
1528.000000	11.126326
1527.000000	11.102382
1526.000000	11.079360
1525.000000	11.043560
1524.000000	11.008451
1523.000000	10.977487
1522.000000	10.958838
1521.000000	10.933054
1520.000000	10.885282
1519.000000	10.845454
1518.000000	10.810230
1517.000000	10.787438
1516.000000	10.765451
1515.000000	10.722284
1514.000000	10.684183
1513.000000	10.653793
1512.000000	10.633534
1511.000000	10.604525
1510.000000	10.553876
1509.000000	10.499314
1508.000000	10.479630
1507.000000	10.441528
1506.000000	10.401124
1505.000000	10.368662
1504.000000	10.342302
1503.000000	10.307768
1502.000000	10.276343
1501.000000	10.244112
1500.000000	10.193463
1499.000000	10.162152
1498.000000	10.137634
1497.000000	10.115417
1496.000000	10.079617
1495.000000	10.052336
1494.000000	10.031501
1493.000000	9.988910
1492.000000	9.970952
1491.000000	9.939297
1490.000000	9.903267
1489.000000	9.891986
1488.000000	9.871726
1487.000000	9.854805
1486.000000	9.829250
1485.000000	9.809336
1484.000000	9.800587
1483.000000	9.788501
1482.000000	9.759147
1481.000000	9.734398
1480.000000	9.733592
1479.000000	9.724729
1478.000000	9.712067
1477.000000	9.688354
1476.000000	9.674886
1475.000000	9.663835
1474.000000	9.659921
1473.000000	9.648410
1472.000000	9.640813
1471.000000	9.655086
1470.000000	9.645647
1469.000000	9.636323
1468.000000	9.632525
1467.000000	9.645762
1466.000000	9.657389
1465.000000	9.646568
1464.000000	9.643115
1463.000000	9.650712
1462.000000	9.664756
1461.000000	9.673159
1460.000000	9.677533
1459.000000	9.684210
1458.000000	9.705045
1457.000000	9.718743
1456.000000	9.750859
1455.000000	9.769852
1454.000000	9.806113
1453.000000	9.824991
1452.000000	9.835006
1451.000000	9.881971
1450.000000	9.921109
1449.000000	9.975442
1448.000000	10.002032
1447.000000	10.016882
1446.000000	10.050149
1445.000000	10.114381
1444.000000	10.149145
1443.000000	10.181146
1442.000000	10.228111
1441.000000	10.278760
1440.000000	10.301782
1439.000000	10.376720
1438.000000	10.424606
1437.000000	10.474795
1436.000000	10.519113
1435.000000	10.566654
1434.000000	10.629044
1433.000000	10.698687
1432.000000	10.758775
1431.000000	10.840734
1430.000000	10.928334
1429.000000	10.975990
1428.000000	11.041834
1427.000000	11.150729
1426.000000	11.240746
1425.000000	11.337555
1424.000000	11.422162
1423.000000	11.526223
1422.000000	11.646744
1421.000000	11.757136
1420.000000	11.855441
1419.000000	12.008885
1418.000000	12.159105
1417.000000	12.299656
1416.000000	12.414883
1415.000000	12.575463
1414.000000	12.749627
1413.000000	12.927244
1412.000000	13.129495
1411.000000	13.280406
1410.000000	13.461937
1409.000000	13.710807
1408.000000	13.965549
1407.000000	14.235600
1406.000000	14.507609
1405.000000	14.750264
1404.000000	15.041611
1403.000000	15.358743
1402.000000	15.640535
1401.000000	15.905752
1400.000000	16.287001
1399.000000	16.684021
1398.000000	16.976058
1397.000000	17.208008
1396.000000	17.478635
1395.000000	17.889928
1394.000000	18.308703
1393.000000	18.576683
1392.000000	18.873210
1391.000000	19.276906
1390.000000	19.673349
1389.000000	20.013619
1388.000000	20.417660
1387.000000	20.921272
1386.000000	21.467937
1385.000000	21.969822
1384.000000	22.460312
1383.000000	23.034143
1382.000000	23.661845
1381.000000	24.244079
1380.000000	24.786714
1379.000000	25.117199
1378.000000	25.514679
1377.000000	25.764241
1376.000000	26.023471
1375.000000	26.265090
1374.000000	26.520523
1373.000000	26.783552
1372.000000	27.100569
1371.000000	27.453040
1370.000000	27.836937
1369.000000	28.167997
1368.000000	28.475460
1367.000000	28.817341
1366.000000	29.117436
1365.000000	29.362854
1364.000000	29.584098
1363.000000	29.801889
1362.000000	30.001723
1361.000000	30.212722
1360.000000	30.445247
1359.000000	30.612158
1358.000000	30.673743
1357.000000	30.795531
1356.000000	30.929866
1355.000000	31.152146
1354.000000	31.479178
1353.000000	31.863535
1352.000000	32.224985
1351.000000	32.679905
1350.000000	33.170050
1349.000000	33.643042
1348.000000	34.049501
1347.000000	34.490032
1346.000000	34.920089
1345.000000	35.284186
1344.000000	35.677752
1343.000000	36.080527
1342.000000	36.433919
1341.000000	36.804463
1340.000000	37.167870
1339.000000	37.547852
1338.000000	37.920698
1337.000000	38.294350
1336.000000	38.664894
1335.000000	39.036934
1334.000000	39.371908
1333.000000	39.752812
1332.000000	40.125773
1331.000000	40.461898
1330.000000	40.819780
1329.000000	41.135761
1328.000000	41.472577
1327.000000	41.808817
1326.000000	42.102812
1325.000000	42.391626
1324.000000	42.697247
1323.000000	42.988249
1322.000000	43.250127
1321.000000	43.529042
1320.000000	43.819468
1319.000000	44.063850
1318.000000	44.309843
1317.000000	44.520727
1316.000000	44.735525
1315.000000	44.972540
1314.000000	45.210475
1313.000000	45.403172
1312.000000	45.597480
1311.000000	45.783500
1310.000000	45.982527
1309.000000	46.154619
1308.000000	46.315545
1307.000000	46.452988
1306.000000	46.593999
1305.000000	46.720852
1304.000000	46.856108
1303.000000	46.966730
1302.000000	47.070906
1301.000000	47.168751
1300.000000	47.250480
1299.000000	47.330367
1298.000000	47.412902
1297.000000	47.476098
1296.000000	47.533309
1295.000000	47.586720
1294.000000	47.634607
1293.000000	47.662118
1292.000000	47.701601
1291.000000	47.748337
1290.000000	47.755819
1289.000000	47.759387
1288.000000	47.766409
1287.000000	47.769172
1286.000000	47.755359
1285.000000	47.730149
1284.000000	47.703328
1283.000000	47.665226
1282.000000	47.629887
1281.000000	47.593742
1280.000000	47.548043
1279.000000	47.504761
1278.000000	47.450774
1277.000000	47.411290
1276.000000	47.368469
1275.000000	47.323000
1274.000000	47.283517
1273.000000	47.229184
1272.000000	47.191658
1271.000000	47.156664
1270.000000	47.121095
1269.000000	47.085525
1268.000000	47.045927
1267.000000	47.008170
1266.000000	46.949348
1265.000000	46.879476
1264.000000	46.839992
1263.000000	46.802696
1262.000000	46.741342
1261.000000	46.668707
1260.000000	46.618173
1259.000000	46.566142
1258.000000	46.500068
1257.000000	46.431922
1256.000000	46.360093
1255.000000	46.272263
1254.000000	46.219196
1253.000000	46.140115
1252.000000	46.037896
1251.000000	45.953519
1250.000000	45.860970
1249.000000	45.769111
1248.000000	45.681856
1247.000000	45.582055
1246.000000	45.469936
1245.000000	45.339745
1244.000000	45.216806
1243.000000	45.086845
1242.000000	44.935244
1241.000000	44.796074
1240.000000	44.654947
1239.000000	44.509101
1238.000000	44.374766
1237.000000	44.225351
1236.000000	44.065462
1235.000000	43.899701
1234.000000	43.720242
1233.000000	43.549993
1232.000000	43.390678
1231.000000	43.205349
1230.000000	43.003098
1229.000000	42.807179
1228.000000	42.617705
1227.000000	42.437786
1226.000000	42.244053
1225.000000	42.017169
1224.000000	41.800184
1223.000000	41.587918
1222.000000	41.365063
1221.000000	41.136336
1220.000000	40.928675
1219.000000	40.725503
1218.000000	40.520835
1217.000000	40.317318
1216.000000	40.110348
1215.000000	39.942631
1214.000000	39.756495
1213.000000	39.574159
1212.000000	39.409204
1211.000000	39.245746
1210.000000	39.082978
1209.000000	38.923204
1208.000000	38.783458
1207.000000	38.647857
1206.000000	38.517436
1205.000000	38.400137
1204.000000	38.302293
1203.000000	38.238406
1202.000000	38.175210
1201.000000	38.116503
1200.000000	38.076559
1199.000000	38.006456
1198.000000	37.933476
1197.000000	37.844840
1196.000000	37.710735
1195.000000	37.551766
1194.000000	37.345602
1193.000000	37.097767
1192.000000	36.788462
1191.000000	36.426552
1190.000000	36.028612
1189.000000	35.612484
1188.000000	35.233997
1187.000000	34.925384
1186.000000	34.722442
1185.000000	34.604223
1184.000000	34.594669
1183.000000	34.730845
1182.000000	34.998940
1181.000000	35.390664
1180.000000	35.840750
1179.000000	36.336420
1178.000000	36.846018
1177.000000	37.317169
1176.000000	37.750448
1175.000000	38.140791
1174.000000	38.496371
1173.000000	38.852065
1172.000000	39.190377
1171.000000	39.516143
1170.000000	39.854801
1169.000000	40.188393
1168.000000	40.541210
1167.000000	40.902775
1166.000000	41.266297
1165.000000	41.654798
1164.000000	42.038349
1163.000000	42.449527
1162.000000	42.858518
1161.000000	43.284431
1160.000000	43.702630
1159.000000	44.132341
1158.000000	44.542714
1157.000000	44.939848
1156.000000	45.344810
1155.000000	45.703612
1154.000000	46.034097
1153.000000	46.328437
1152.000000	46.585366
1151.000000	46.818812
1150.000000	46.999882
1149.000000	47.158506
1148.000000	47.340382
1147.000000	47.516042
1146.000000	47.727271
1145.000000	47.966588
1144.000000	48.287058
1143.000000	48.665314
1142.000000	49.065442
1141.000000	49.531413
1140.000000	50.016377
1139.000000	50.512392
1138.000000	51.056985
1137.000000	51.601231
1136.000000	52.162515
1135.000000	52.765353
1134.000000	53.396394
1133.000000	54.014197
1132.000000	54.547969
1131.000000	55.035351
1130.000000	55.477839
1129.000000	55.874858
1128.000000	56.233431
1127.000000	56.515684
1126.000000	56.765015
1125.000000	56.955179
1124.000000	57.114493
1123.000000	57.253663
1122.000000	57.386387
1121.000000	57.463396
1120.000000	57.541212
1119.000000	57.613041
1118.000000	57.664496
1117.000000	57.691547
1116.000000	57.713994
1115.000000	57.732757
1114.000000	57.717332
1113.000000	57.704785
1112.000000	57.695576
1111.000000	57.686482
1110.000000	57.685216
1109.000000	57.670367
1108.000000	57.685446
1107.000000	57.668985
1106.000000	57.644927
1105.000000	57.643200
1104.000000	57.615573
1103.000000	57.595429
1102.000000	57.592551
1101.000000	57.565155
1100.000000	57.560205
1099.000000	57.518880
1098.000000	57.498850
1097.000000	57.470533
1096.000000	57.457525
1095.000000	57.418042
1094.000000	57.365897
1093.000000	57.339191
1092.000000	57.281750
1091.000000	57.235130
1090.000000	57.197374
1089.000000	57.127041
1088.000000	57.043124
1087.000000	57.010433
1086.000000	56.939064
1085.000000	56.881623
1084.000000	56.801966
1083.000000	56.741417
1082.000000	56.667055
1081.000000	56.598679
1080.000000	56.522360
1079.000000	56.421868
1078.000000	56.358902
1077.000000	56.302267
1076.000000	56.195559
1075.000000	56.127528
1074.000000	56.077685
1073.000000	55.982718
1072.000000	55.890053
1071.000000	55.812123
1070.000000	55.717501
1069.000000	55.641297
1068.000000	55.549323
1067.000000	55.472314
1066.000000	55.389549
1065.000000	55.301028
1064.000000	55.203413
1063.000000	55.116965
1062.000000	55.003120
1061.000000	54.928988
1060.000000	54.860612
1059.000000	54.726277
1058.000000	54.625324
1057.000000	54.525177
1056.000000	54.418123
1055.000000	54.328451
1054.000000	54.233600
1053.000000	54.092473
1052.000000	54.018456
1051.000000	53.907489
1050.000000	53.809759
1049.000000	53.713872
1048.000000	53.611883
1047.000000	53.523362
1046.000000	53.410898
1045.000000	53.330781
1044.000000	53.229943
1043.000000	53.147754
1042.000000	53.045995
1041.000000	52.961158
1040.000000	52.872177
1039.000000	52.762936
1038.000000	52.670041
1037.000000	52.580830
1036.000000	52.482179
1035.000000	52.388133
1034.000000	52.266691
1033.000000	52.150889
1032.000000	52.047979
1031.000000	51.944839
1030.000000	51.850333
1029.000000	51.714501
1028.000000	51.602037
1027.000000	51.479213
1026.000000	51.386894
1025.000000	51.256242
1024.000000	51.125476
1023.000000	51.016235
1022.000000	50.906304
1021.000000	50.769091
1020.000000	50.659505
1019.000000	50.533803
1018.000000	50.418116
1017.000000	50.330977
1016.000000	50.188008
1015.000000	50.093502
1014.000000	50.014881
1013.000000	49.920489
1012.000000	49.870186
1011.000000	49.783622
1010.000000	49.705001
1009.000000	49.660798
1008.000000	49.603357
1007.000000	49.546838
1006.000000	49.505858
1005.000000	49.447381
1004.000000	49.407323
1003.000000	49.380617
1002.000000	49.333766
1001.000000	49.295204
1000.000000	49.260671
999.000000	49.221763
998.000000	49.173992
997.000000	49.124033
996.000000	49.091802
995.000000	49.057499
994.000000	49.023196
993.000000	48.998102
992.000000	48.966561
991.000000	48.947683
990.000000	48.928114
989.000000	48.887710
988.000000	48.870558
987.000000	48.863536
986.000000	48.846615
985.000000	48.832456
984.000000	48.829233
983.000000	48.830384
982.000000	48.823708
981.000000	48.830960
980.000000	48.821866
979.000000	48.816686
978.000000	48.826586
977.000000	48.830730
976.000000	48.830154
975.000000	48.832226
974.000000	48.843967
973.000000	48.860198
972.000000	48.860428
971.000000	48.881609
970.000000	48.895998
969.000000	48.901523
968.000000	48.917639
967.000000	48.922013
966.000000	48.949409
965.000000	48.993382
964.000000	49.012951
963.000000	49.027225
962.000000	49.060031
961.000000	49.094910
960.000000	49.146250
959.000000	49.201964
958.000000	49.229706
957.000000	49.253073
956.000000	49.295665
955.000000	49.337105
954.000000	49.386718
953.000000	49.424820
952.000000	49.465914
951.000000	49.506549
950.000000	49.547413
949.000000	49.589084
948.000000	49.629948
947.000000	49.677719
946.000000	49.703274
945.000000	49.727448
944.000000	49.766010
943.000000	49.788687
942.000000	49.790068
941.000000	49.819767
940.000000	49.839336
939.000000	49.832775
938.000000	49.831393
937.000000	49.838185
936.000000	49.833811
935.000000	49.849811
934.000000	49.873409
933.000000	49.895050
932.000000	49.908518
931.000000	49.906561
930.000000	49.924173
929.000000	49.925324
928.000000	49.902762
927.000000	49.903798
926.000000	49.898848
925.000000	49.885265
924.000000	49.884344
923.000000	49.874560
922.000000	49.837839
921.000000	49.843365
920.000000	49.847048
919.000000	49.822299
918.000000	49.808486
917.000000	49.787190
916.000000	49.752312
915.000000	49.719160
914.000000	49.697058
913.000000	49.652510
912.000000	49.619013
911.000000	49.585976
910.000000	49.557543
909.000000	49.539355
908.000000	49.521859
907.000000	49.496879
906.000000	49.464418
905.000000	49.455439
904.000000	49.463497
903.000000	49.460274
902.000000	49.455554
901.000000	49.447151
900.000000	49.425050
899.000000	49.444964
898.000000	49.462461
897.000000	49.441856
896.000000	49.435870
895.000000	49.435180
894.000000	49.418143
893.000000	49.404445
892.000000	49.399725
891.000000	49.387754
890.000000	49.347810
889.000000	49.303377
888.000000	49.263203
887.000000	49.215317
886.000000	49.152926
885.000000	49.076608
884.000000	49.014217
883.000000	48.963453
882.000000	48.890703
881.000000	48.813923
880.000000	48.720798
879.000000	48.666350
878.000000	48.545138
877.000000	48.432904
876.000000	48.325736
875.000000	48.186681
874.000000	48.035194
873.000000	47.876341
872.000000	47.722782
871.000000	47.596275
870.000000	47.556561
869.000000	47.579929
868.000000	47.612045
867.000000	47.638405
866.000000	47.692623
865.000000	47.734754
864.000000	47.775158
863.000000	47.799331
862.000000	47.842037
861.000000	47.875190
860.000000	47.901665
859.000000	47.948055
858.000000	47.966933
857.000000	47.603100
856.000000	48.272000
855.000000	48.025700
854.000000	48.194200
853.000000	48.371500
852.000000	48.743800
851.000000	48.638500
850.000000	48.985600
849.000000	48.807100
848.000000	48.952400
847.000000	48.743400
846.000000	49.123500
845.000000	49.032600
844.000000	48.910800
843.000000	49.034500
842.000000	49.060600
841.000000	49.305600
840.000000	49.082500
839.000000	49.046900
838.000000	48.916400
837.000000	49.223700
836.000000	49.093500
835.000000	49.023800
834.000000	48.952600
833.000000	49.082000
832.000000	49.060200
831.000000	48.923000
830.000000	49.005700
829.000000	49.017600
828.000000	49.001900
827.000000	48.812800
826.000000	48.851200
825.000000	48.776100
824.000000	48.802100
823.000000	48.709300
822.000000	48.879900
821.000000	48.760800
820.000000	48.867800
819.000000	48.578100
818.000000	48.670100
817.000000	48.556500
816.000000	48.320200
815.000000	48.442300
814.000000	48.247100
813.000000	48.424300
812.000000	48.211000
811.000000	48.060600
810.000000	48.138700
809.000000	48.054400
808.000000	47.977200
807.000000	47.998000
806.000000	47.866500
805.000000	47.654100
804.000000	47.724200
803.000000	47.640100
802.000000	47.520700
801.000000	47.394700
800.000000	47.288000
799.000000	47.209000
798.000000	46.988200
797.000000	47.022700
796.000000	47.020400
795.000000	46.989200
794.000000	46.754900
793.000000	46.874700
792.000000	46.647300
791.000000	46.568200
790.000000	46.441700
789.000000	46.428600
788.000000	46.255100
787.000000	46.150700
786.000000	46.028400
785.000000	45.994100
784.000000	45.898200
783.000000	45.710100
782.000000	45.681800
781.000000	45.553100
780.000000	45.437100
779.000000	45.370700
778.000000	45.224500
777.000000	45.172400
776.000000	44.970800
775.000000	44.836800
774.000000	44.729500
773.000000	44.605300
772.000000	44.578800
771.000000	44.404600
770.000000	44.207900
769.000000	44.107700
768.000000	43.950200
767.000000	43.827600
766.000000	43.701600
765.000000	43.652400
764.000000	43.472200
763.000000	43.317200
762.000000	43.178100
761.000000	43.091500
760.000000	42.867600
759.000000	42.735400
758.000000	42.666400
757.000000	42.495400
756.000000	42.242000
755.000000	42.147300
754.000000	42.081600
753.000000	41.863700
752.000000	41.744700
751.000000	41.634400
750.000000	41.445800
749.000000	41.259500
748.000000	41.102600
747.000000	41.024900
746.000000	40.782800
745.000000	40.673400
744.000000	40.447900
743.000000	40.372300
742.000000	40.144700
741.000000	39.895000
740.000000	39.755800
739.000000	39.568700
738.000000	39.379100
737.000000	39.231100
736.000000	39.013700
735.000000	38.870400
734.000000	38.636400
733.000000	38.524200
732.000000	38.315800
731.000000	38.115300
730.000000	37.910700
729.000000	37.704400
728.000000	37.514400
727.000000	37.328800
726.000000	37.094500
725.000000	36.861700
724.000000	36.673300
723.000000	36.447300
722.000000	36.206700
721.000000	36.004800
720.000000	35.788800
719.000000	35.604200
718.000000	35.414400
717.000000	35.186200
716.000000	34.948400
715.000000	34.776500
714.000000	34.527700
713.000000	34.311000
712.000000	34.158700
711.000000	33.934500
710.000000	33.669600
709.000000	33.433300
708.000000	33.193300
707.000000	33.023400
706.000000	32.795400
705.000000	32.550400
704.000000	32.355600
703.000000	32.106600
702.000000	31.884200
701.000000	31.667700
700.000000	31.443500
699.000000	31.232800
698.000000	31.057000
697.000000	30.878800
696.000000	30.676400
695.000000	30.470700
694.000000	30.239000
693.000000	30.030700
692.000000	29.815100
691.000000	29.590000
690.000000	29.423200
689.000000	29.229200
688.000000	29.025800
687.000000	28.831500
686.000000	28.661600
685.000000	28.474600
684.000000	28.290200
683.000000	28.124900
682.000000	27.972800
681.000000	27.799000
680.000000	27.610900
679.000000	27.437600
678.000000	27.289000
677.000000	27.134600
676.000000	26.975300
675.000000	26.822100
674.000000	26.657800
673.000000	26.520600
672.000000	26.379600
671.000000	26.237700
670.000000	26.100000
669.000000	25.966200
668.000000	25.824700
667.000000	25.689500
666.000000	25.569300
665.000000	25.473800
664.000000	25.349400
663.000000	25.223100
662.000000	25.112900
661.000000	25.015300
660.000000	24.910200
659.000000	24.798700
658.000000	24.716700
657.000000	24.616500
656.000000	24.515200
655.000000	24.419400
654.000000	24.324100
653.000000	24.225000
652.000000	24.131100
651.000000	24.054900
650.000000	23.983300
649.000000	23.904400
648.000000	23.836000
647.000000	23.785400
646.000000	23.731900
645.000000	23.669800
644.000000	23.605900
643.000000	23.534700
642.000000	23.480700
641.000000	23.445000
640.000000	23.399400
639.000000	23.344200
638.000000	23.299400
637.000000	23.249800
636.000000	23.213000
635.000000	23.182600
634.000000	23.172200
633.000000	23.171900
632.000000	23.130200
631.000000	23.105600
630.000000	23.093300
629.000000	23.075900
628.000000	23.071800
627.000000	23.061200
626.000000	23.052900
625.000000	23.056100
624.000000	23.050600
623.000000	23.062600
622.000000	23.072000
621.000000	23.079400
620.000000	23.092200
619.000000	23.112000
618.000000	23.129400
617.000000	23.156600
616.000000	23.185800
615.000000	23.209900
614.000000	23.246300
613.000000	23.279400
612.000000	23.314100
611.000000	23.353700
610.000000	23.391100
609.000000	23.427900
608.000000	23.462200
607.000000	23.501400
606.000000	23.558000
605.000000	23.618500
604.000000	23.657300
603.000000	23.708200
602.000000	23.772000
601.000000	23.814600
600.000000	23.865400
599.000000	23.930700
598.000000	23.971200
597.000000	24.035400
596.000000	24.069400
595.000000	24.113600
594.000000	24.174700
593.000000	24.225400
592.000000	24.255600
591.000000	24.288300
590.000000	24.328700
589.000000	24.368000
588.000000	24.394900
587.000000	24.414000
586.000000	24.452900
585.000000	24.487400
584.000000	24.500400
583.000000	24.511500
582.000000	24.513700
581.000000	24.520000
580.000000	24.528800
579.000000	24.532100
578.000000	24.519100
577.000000	24.515900
576.000000	24.493300
575.000000	24.474800
574.000000	24.448300
573.000000	24.421000
572.000000	24.376200
571.000000	24.328800
570.000000	24.294300
569.000000	24.236800
568.000000	24.180800
567.000000	24.113100
566.000000	24.074700
565.000000	23.993800
564.000000	23.920000
563.000000	23.859400
562.000000	23.749900
561.000000	23.643800
560.000000	23.555500
559.000000	23.442100
558.000000	23.333300
557.000000	23.224800
556.000000	23.116100
555.000000	23.008200
554.000000	22.846900
553.000000	22.712100
552.000000	22.578400
551.000000	22.432100
550.000000	22.283800
549.000000	22.136100
548.000000	21.975200
547.000000	21.820600
546.000000	21.656400
545.000000	21.485800
544.000000	21.296700
543.000000	21.116900
542.000000	20.947500
541.000000	20.752700
540.000000	20.534300
539.000000	20.345900
538.000000	20.164000
537.000000	19.955800
536.000000	19.749300
535.000000	19.546500
534.000000	19.345600
533.000000	19.121600
532.000000	18.913700
531.000000	18.673900
530.000000	18.448700
529.000000	18.227500
528.000000	18.013400
527.000000	17.777700
526.000000	17.550200
525.000000	17.325800
524.000000	17.094500
523.000000	16.853200
522.000000	16.618400
521.000000	16.399300
520.000000	16.164600
519.000000	15.932500
518.000000	15.719800
517.000000	15.484400
516.000000	15.269300
515.000000	15.060000
514.000000	14.863600
513.000000	14.640300
512.000000	14.445700
511.000000	14.251100
510.000000	14.065500
509.000000	13.873400
508.000000	13.715100
507.000000	13.516800
506.000000	13.362300
505.000000	13.214100
504.000000	13.063900
503.000000	12.925500
502.000000	12.776100
501.000000	12.619900
500.000000	12.485100
499.000000	12.366600
498.000000	12.262300
497.000000	12.152000
496.000000	12.053800
495.000000	11.938900
494.000000	11.818600
493.000000	11.744600
492.000000	11.659600
491.000000	11.569400
490.000000	11.477800
489.000000	11.394700
488.000000	11.334800
487.000000	11.267400
486.000000	11.205900
485.000000	11.146700
484.000000	11.060800
483.000000	11.020800
482.000000	10.945400
481.000000	10.868100
480.000000	10.803100
479.000000	10.730000
478.000000	10.667300
477.000000	10.590300
476.000000	10.532800
475.000000	10.482500
474.000000	10.419300
473.000000	10.346800
472.000000	10.283800
471.000000	10.217800
470.000000	10.172400
469.000000	10.113600
468.000000	10.061300
467.000000	10.002200
466.000000	9.958100
465.000000	9.914800
464.000000	9.862200
463.000000	9.811400
462.000000	9.787600
461.000000	9.746000
460.000000	9.700700
459.000000	9.646200
458.000000	9.608100
457.000000	9.560300
456.000000	9.518000
455.000000	9.481600
454.000000	9.472300
453.000000	9.417600
452.000000	9.386200
451.000000	9.334600
450.000000	9.297700
449.000000	9.235900
448.000000	9.214200
447.000000	9.180000
446.000000	9.151500
445.000000	9.090500
444.000000	9.070200
443.000000	9.022900
442.000000	8.989700
441.000000	8.932200
440.000000	8.875400
439.000000	8.813600
438.000000	8.781400
437.000000	8.734300
436.000000	8.690000
435.000000	8.618200
434.000000	8.582200
433.000000	8.536500
432.000000	8.485500
431.000000	8.450700
430.000000	8.407900
429.000000	8.337900
428.000000	8.269800
427.000000	8.261500
426.000000	8.203900
425.000000	8.148700
424.000000	8.096000
423.000000	8.050000
422.000000	8.009000
421.000000	7.950200
420.000000	7.888400
419.000000	7.819100
418.000000	7.784500
417.000000	7.734600
416.000000	7.685300
415.000000	7.635700
414.000000	7.571600
413.000000	7.524000
412.000000	7.462900
411.000000	7.401900
410.000000	7.338400
409.000000	7.277700
408.000000	7.209300
407.000000	7.128000
406.000000	7.077800
405.000000	7.031300
404.000000	6.964900
403.000000	6.905200
402.000000	6.842800
401.000000	6.766400
400.000000	6.702900
399.000000	6.626800
398.000000	6.572000
397.000000	6.510300
396.000000	6.456100
395.000000	6.364200
394.000000	6.313900
393.000000	6.255300
392.000000	6.209300
391.000000	6.109000
390.000000	6.033400
389.000000	5.967600
388.000000	5.900600
387.000000	5.822900
386.000000	5.773000
385.000000	5.709100
384.000000	5.659400
383.000000	5.587400
382.000000	5.516900
381.000000	5.461100
380.000000	5.405100
379.000000	5.383900
378.000000	5.301000
377.000000	5.226300
376.000000	5.195100
375.000000	5.046600
374.000000	4.807500
373.000000	4.783400
372.000000	4.773600
371.000000	4.669500
370.000000	4.849600
369.000000	4.778300
368.000000	4.640000
367.000000	4.776100
366.000000	4.765900
365.000000	4.749900
364.000000	4.633100
363.000000	4.661100
362.000000	4.616900
361.000000	4.665700
360.000000	4.652400
359.000000	4.566700
358.000000	4.698200
357.000000	4.717100
356.000000	4.607000
355.000000	4.757700
354.000000	4.625300
353.000000	4.540600
352.000000	4.623900
351.000000	4.602500
350.000000	4.575500
349.000000	4.441700
348.000000	4.398100
347.000000	4.551800
346.000000	4.482300
345.000000	4.495800
344.000000	4.688300
343.000000	4.754100
342.000000	4.428400
341.000000	4.243500
340.000000	4.530300
339.000000	4.555900
338.000000	4.330900
337.000000	4.205400
336.000000	4.288400
335.000000	4.353800
334.000000	4.361000
333.000000	4.493300
332.000000	4.646300
331.000000	4.581600
330.000000	4.330500
329.000000	4.151800
328.000000	4.351000
327.000000	4.625700
326.000000	4.768900
325.000000	4.580000
324.000000	4.680400
323.000000	4.883700
322.000000	4.525200
321.000000	4.779200
320.000000	4.848600
319.000000	5.176300
318.000000	5.259300
317.000000	4.772400
316.000000	4.412100
315.000000	4.239300
314.000000	4.214000
313.000000	4.211400
312.000000	4.262000
311.000000	4.249200
310.000000	4.258600
309.000000	4.281700
308.000000	4.288000
307.000000	4.252600
306.000000	4.259700
305.000000	4.273800
304.000000	4.287600
303.000000	4.298700
302.000000	4.240500
301.000000	4.239700
300.000000	4.251400
299.000000	4.267100
298.000000	4.288200
297.000000	4.301400
296.000000	4.301300
295.000000	4.303800
294.000000	4.280300
293.000000	4.294700
292.000000	4.316200
291.000000	4.319000
290.000000	4.311500
289.000000	4.300700
288.000000	4.282000
287.000000	4.305900
286.000000	4.328400
285.000000	4.309700
284.000000	4.329600
283.000000	4.366400
282.000000	4.377800
281.000000	4.403500
280.000000	4.391900
279.000000	4.370700
278.000000	4.356200
277.000000	4.408600
276.000000	4.403900
275.000000	4.380600
274.000000	4.422000
273.000000	4.463900
272.000000	4.448800
271.000000	4.466100
270.000000	4.454200
269.000000	4.451400
268.000000	4.453900
267.000000	4.501600
266.000000	4.499600
265.000000	4.519700
264.000000	4.568300
263.000000	4.603100
262.000000	4.587800
261.000000	4.589900
260.000000	4.641400
259.000000	4.626600
258.000000	4.619600
257.000000	4.661600
256.000000	4.645500
255.000000	4.666500
254.000000	4.711900
253.000000	4.689400
252.000000	4.706600
251.000000	4.700700
250.000000	4.715000
