PE UV       SUBTECH     SPECTRUM    ASCII       PEDS        4.00        
   -1
CICIMAUCR0141-3.Sample.ASC
24/04/22
09:38:58.00
24/04/22
09:38:58.00
Vinicio Soto Monge
C. kalinini
250,000000
1
Lambda 1050
1050L1511233
PerkinElmer UV WinLab 6.3.2.0749 / 2.02.05 Lambda 900 UV/VIS/NIR, Aug  7 2015 09:38:08

0
0
3350/servo 860,8/2
0
0
UV/VIS
1
1
1
DoubleDePol,CommonBeamDepol,RBeamAtt,SBeamAtt,60mm sphere, WB InGaAs Detector
0
0
0
0
Program
Program
3350/servo 860,8/2
3350/0,2 860,8/0,2
3350/0,2 860,8/0,2
0
15.00
 
 
 
0
 
860,8
319,2
860,8
Front
100
on
S:100 R:100
0
0
0
0
 
0
 
 
 
0
 
 
0
0
0
0
0
 
 
 
 
0
0


0
0
#HDR
-1
-1
#GR
nm
%R
1.0
0.0
2500,000000
-1,000000
2251
8
96,279600
5,742600
#DATA
2482.000000	11.816012
2481.000000	11.842539
2480.000000	11.823990
2479.000000	11.909953
2478.000000	11.919527
2477.000000	11.922319
2476.000000	11.941666
2475.000000	11.967695
2474.000000	11.983451
2473.000000	12.066523
2472.000000	12.070312
2471.000000	12.166348
2470.000000	12.173130
2469.000000	12.184199
2468.000000	12.235957
2467.000000	12.320325
2466.000000	12.330796
2465.000000	12.396914
2464.000000	12.458146
2463.000000	12.505616
2462.000000	12.573429
2461.000000	12.636855
2460.000000	12.716237
2459.000000	12.777967
2458.000000	12.838301
2457.000000	12.936032
2456.000000	12.994471
2455.000000	13.066573
2454.000000	13.157423
2453.000000	13.270513
2452.000000	13.322869
2451.000000	13.432467
2450.000000	13.510553
2449.000000	13.633016
2448.000000	13.740919
2447.000000	13.846230
2446.000000	13.941468
2445.000000	14.043387
2444.000000	14.166748
2443.000000	14.273156
2442.000000	14.391730
2441.000000	14.501428
2440.000000	14.598461
2439.000000	14.718531
2438.000000	14.826833
2437.000000	14.920177
2436.000000	15.041543
2435.000000	15.158023
2434.000000	15.250369
2433.000000	15.334039
2432.000000	15.438153
2431.000000	15.538178
2430.000000	15.636208
2429.000000	15.728055
2428.000000	15.825687
2427.000000	15.916737
2426.000000	16.004994
2425.000000	16.084974
2424.000000	16.158572
2423.000000	16.208335
2422.000000	16.268868
2421.000000	16.332394
2420.000000	16.391033
2419.000000	16.443289
2418.000000	16.527457
2417.000000	16.584700
2416.000000	16.638353
2415.000000	16.683927
2414.000000	16.710853
2413.000000	16.753835
2412.000000	16.791631
2411.000000	16.809682
2410.000000	16.847378
2409.000000	16.888365
2408.000000	16.912499
2407.000000	16.922272
2406.000000	16.964356
2405.000000	16.992978
2404.000000	16.992878
2403.000000	17.004745
2402.000000	17.012723
2401.000000	17.044436
2400.000000	17.062287
2399.000000	17.067672
2398.000000	17.079540
2397.000000	17.080138
2396.000000	17.083329
2395.000000	17.104072
2394.000000	17.103075
2393.000000	17.114643
2392.000000	17.126810
2391.000000	17.127308
2390.000000	17.114942
2389.000000	17.109457
2388.000000	17.115840
2387.000000	17.120228
2386.000000	17.109856
2385.000000	17.093800
2384.000000	17.085822
2383.000000	17.059594
2382.000000	17.036259
2381.000000	17.028181
2380.000000	17.002352
2379.000000	16.974229
2378.000000	16.972334
2377.000000	16.950095
2376.000000	16.906017
2375.000000	16.883379
2374.000000	16.879689
2373.000000	16.860542
2372.000000	16.828829
2371.000000	16.802003
2370.000000	16.783055
2369.000000	16.755830
2368.000000	16.738378
2367.000000	16.739375
2366.000000	16.732992
2365.000000	16.710654
2364.000000	16.690609
2363.000000	16.683927
2362.000000	16.675052
2361.000000	16.641644
2360.000000	16.623394
2359.000000	16.625887
2358.000000	16.609831
2357.000000	16.583204
2356.000000	16.552987
2355.000000	16.530150
2354.000000	16.513197
2353.000000	16.474802
2352.000000	16.441095
2351.000000	16.426236
2350.000000	16.404097
2349.000000	16.363010
2348.000000	16.320826
2347.000000	16.301279
2346.000000	16.276647
2345.000000	16.240846
2344.000000	16.221997
2343.000000	16.207637
2342.000000	16.179813
2341.000000	16.165154
2340.000000	16.142616
2339.000000	16.117983
2338.000000	16.095744
2337.000000	16.080786
2336.000000	16.072109
2335.000000	16.075899
2334.000000	16.068420
2333.000000	16.063733
2332.000000	16.065528
2331.000000	16.077993
2330.000000	16.073605
2329.000000	16.086370
2328.000000	16.107113
2327.000000	16.118981
2326.000000	16.149198
2325.000000	16.154982
2324.000000	16.174428
2323.000000	16.192479
2322.000000	16.182506
2321.000000	16.171636
2320.000000	16.176822
2319.000000	16.178118
2318.000000	16.157674
2317.000000	16.150993
2316.000000	16.113895
2315.000000	16.084077
2314.000000	16.044087
2313.000000	15.993326
2312.000000	15.968295
2311.000000	15.941868
2310.000000	15.908958
2309.000000	15.852513
2308.000000	15.799758
2307.000000	15.784799
2306.000000	15.753087
2305.000000	15.708110
2304.000000	15.702925
2303.000000	15.682780
2302.000000	15.672907
2301.000000	15.649771
2300.000000	15.649671
2299.000000	15.641892
2298.000000	15.647278
2297.000000	15.665228
2296.000000	15.669317
2295.000000	15.687866
2294.000000	15.684974
2293.000000	15.723668
2292.000000	15.736133
2291.000000	15.761464
2290.000000	15.782905
2289.000000	15.796368
2288.000000	15.840746
2287.000000	15.858696
2286.000000	15.899883
2285.000000	15.922222
2284.000000	15.952638
2283.000000	15.989237
2282.000000	16.024441
2281.000000	16.067123
2280.000000	16.098736
2279.000000	16.101529
2278.000000	16.138527
2277.000000	16.146704
2276.000000	16.169841
2275.000000	16.195969
2274.000000	16.201853
2273.000000	16.216014
2272.000000	16.251716
2271.000000	16.270165
2270.000000	16.295794
2269.000000	16.339175
2268.000000	16.347851
2267.000000	16.399808
2266.000000	16.463035
2265.000000	16.532843
2264.000000	16.595869
2263.000000	16.678542
2262.000000	16.786844
2261.000000	16.890360
2260.000000	17.021100
2259.000000	17.150046
2258.000000	17.256852
2257.000000	17.397166
2256.000000	17.563908
2255.000000	17.703923
2254.000000	17.866775
2253.000000	17.995322
2252.000000	18.170739
2251.000000	18.315641
2250.000000	18.469917
2249.000000	18.631572
2248.000000	18.753038
2247.000000	18.874803
2246.000000	18.999062
2245.000000	19.101779
2244.000000	19.191233
2243.000000	19.291558
2242.000000	19.374131
2241.000000	19.430077
2240.000000	19.493502
2239.000000	19.534390
2238.000000	19.548252
2237.000000	19.594325
2236.000000	19.608287
2235.000000	19.616963
2234.000000	19.624841
2233.000000	19.622049
2232.000000	19.574679
2231.000000	19.548451
2230.000000	19.490511
2229.000000	19.491209
2228.000000	19.410830
2227.000000	19.371937
2226.000000	19.325863
2225.000000	19.242193
2224.000000	19.166003
2223.000000	19.097890
2222.000000	19.013223
2221.000000	18.939226
2220.000000	18.862138
2219.000000	18.773881
2218.000000	18.703076
2217.000000	18.592280
2216.000000	18.503823
2215.000000	18.420054
2214.000000	18.336683
2213.000000	18.266177
2212.000000	18.184801
2211.000000	18.111004
2210.000000	18.044387
2209.000000	17.959221
2208.000000	17.878044
2207.000000	17.829876
2206.000000	17.780811
2205.000000	17.725164
2204.000000	17.653661
2203.000000	17.588640
2202.000000	17.538976
2201.000000	17.491307
2200.000000	17.404745
2199.000000	17.375326
2198.000000	17.338926
2197.000000	17.294449
2196.000000	17.262337
2195.000000	17.212474
2194.000000	17.172085
2193.000000	17.124117
2192.000000	17.104571
2191.000000	17.055306
2190.000000	17.023992
2189.000000	17.013022
2188.000000	16.981409
2187.000000	16.949996
2186.000000	16.916588
2185.000000	16.900731
2184.000000	16.853062
2183.000000	16.816762
2182.000000	16.809283
2181.000000	16.759320
2180.000000	16.738078
2179.000000	16.728704
2178.000000	16.720028
2177.000000	16.698188
2176.000000	16.676847
2175.000000	16.672559
2174.000000	16.662985
2173.000000	16.669467
2172.000000	16.662686
2171.000000	16.677246
2170.000000	16.681933
2169.000000	16.711152
2168.000000	16.735785
2167.000000	16.752339
2166.000000	16.789038
2165.000000	16.828330
2164.000000	16.873307
2163.000000	16.889761
2162.000000	16.952589
2161.000000	17.018009
2160.000000	17.068370
2159.000000	17.120228
2158.000000	17.196119
2157.000000	17.284576
2156.000000	17.368046
2155.000000	17.457500
2154.000000	17.554534
2153.000000	17.653462
2152.000000	17.747304
2151.000000	17.864182
2150.000000	17.973482
2149.000000	18.061240
2148.000000	18.163559
2147.000000	18.257401
2146.000000	18.360717
2145.000000	18.469219
2144.000000	18.569842
2143.000000	18.658797
2142.000000	18.762412
2141.000000	18.860243
2140.000000	18.955182
2139.000000	19.042542
2138.000000	19.127509
2137.000000	19.221849
2136.000000	19.318583
2135.000000	19.399561
2134.000000	19.475352
2133.000000	19.543166
2132.000000	19.597018
2131.000000	19.662538
2130.000000	19.737731
2129.000000	19.807140
2128.000000	19.853712
2127.000000	19.893602
2126.000000	19.946656
2125.000000	20.002802
2124.000000	20.061241
2123.000000	20.097841
2122.000000	20.125365
2121.000000	20.163660
2120.000000	20.200159
2119.000000	20.229279
2118.000000	20.234864
2117.000000	20.248826
2116.000000	20.282134
2115.000000	20.301979
2114.000000	20.304971
2113.000000	20.324517
2112.000000	20.337980
2111.000000	20.331398
2110.000000	20.328706
2109.000000	20.328706
2108.000000	20.325315
2107.000000	20.326113
2106.000000	20.331199
2105.000000	20.342368
2104.000000	20.336385
2103.000000	20.331997
2102.000000	20.351443
2101.000000	20.350346
2100.000000	20.338878
2099.000000	20.352740
2098.000000	20.354535
2097.000000	20.354834
2096.000000	20.372386
2095.000000	20.384951
2094.000000	20.408487
2093.000000	20.427734
2092.000000	20.450272
2091.000000	20.465031
2090.000000	20.488068
2089.000000	20.517786
2088.000000	20.526163
2087.000000	20.537532
2086.000000	20.549299
2085.000000	20.551493
2084.000000	20.548402
2083.000000	20.527260
2082.000000	20.507913
2081.000000	20.493852
2080.000000	20.443391
2079.000000	20.393528
2078.000000	20.345759
2077.000000	20.287918
2076.000000	20.222199
2075.000000	20.139925
2074.000000	20.059945
2073.000000	19.978070
2072.000000	19.889613
2071.000000	19.790087
2070.000000	19.684078
2069.000000	19.574081
2068.000000	19.443141
2067.000000	19.318882
2066.000000	19.201505
2065.000000	19.080239
2064.000000	18.972734
2063.000000	18.858748
2062.000000	18.739376
2061.000000	18.628082
2060.000000	18.540523
2059.000000	18.443888
2058.000000	18.359121
2057.000000	18.311851
2056.000000	18.270964
2055.000000	18.219405
2054.000000	18.206541
2053.000000	18.223893
2052.000000	18.241744
2051.000000	18.285025
2050.000000	18.348052
2049.000000	18.428231
2048.000000	18.514793
2047.000000	18.628680
2046.000000	18.744562
2045.000000	18.871612
2044.000000	19.014619
2043.000000	19.139376
2042.000000	19.274305
2041.000000	19.419705
2040.000000	19.546257
2039.000000	19.671513
2038.000000	19.805544
2037.000000	19.935487
2036.000000	20.050770
2035.000000	20.173233
2034.000000	20.286123
2033.000000	20.389938
2032.000000	20.472610
2031.000000	20.559073
2030.000000	20.671463
2029.000000	20.763610
2028.000000	20.836410
2027.000000	20.916988
2026.000000	21.011229
2025.000000	21.074256
2024.000000	21.137382
2023.000000	21.196320
2022.000000	21.262239
2021.000000	21.318086
2020.000000	21.384304
2019.000000	21.440150
2018.000000	21.466178
2017.000000	21.508662
2016.000000	21.548851
2015.000000	21.576974
2014.000000	21.607988
2013.000000	21.626438
2012.000000	21.631424
2011.000000	21.648078
2010.000000	21.633219
2009.000000	21.630427
2008.000000	21.622648
2007.000000	21.593129
2006.000000	21.576675
2005.000000	21.550546
2004.000000	21.511853
2003.000000	21.450521
2002.000000	21.416914
2001.000000	21.379517
2000.000000	21.293254
1999.000000	21.254760
1998.000000	21.176575
1997.000000	21.098489
1996.000000	21.038255
1995.000000	20.954086
1994.000000	20.870217
1993.000000	20.792630
1992.000000	20.697691
1991.000000	20.611628
1990.000000	20.528955
1989.000000	20.429429
1988.000000	20.331398
1987.000000	20.235861
1986.000000	20.129155
1985.000000	20.023345
1984.000000	19.932695
1983.000000	19.828282
1982.000000	19.724068
1981.000000	19.637706
1980.000000	19.529104
1979.000000	19.424692
1978.000000	19.327160
1977.000000	19.227334
1976.000000	19.130301
1975.000000	19.033068
1974.000000	18.941221
1973.000000	18.875402
1972.000000	18.774978
1971.000000	18.676449
1970.000000	18.596668
1969.000000	18.502028
1968.000000	18.406192
1967.000000	18.329204
1966.000000	18.244836
1965.000000	18.150894
1964.000000	18.067324
1963.000000	17.959221
1962.000000	17.890909
1961.000000	17.785997
1960.000000	17.685274
1959.000000	17.611676
1958.000000	17.526909
1957.000000	17.427682
1956.000000	17.336533
1955.000000	17.239998
1954.000000	17.166500
1953.000000	17.065478
1952.000000	16.983005
1951.000000	16.897540
1950.000000	16.829228
1949.000000	16.758422
1948.000000	16.677445
1947.000000	16.622297
1946.000000	16.566351
1945.000000	16.496542
1944.000000	16.446879
1943.000000	16.412873
1942.000000	16.380362
1941.000000	16.352838
1940.000000	16.338377
1939.000000	16.316139
1938.000000	16.279539
1937.000000	16.260292
1936.000000	16.267971
1935.000000	16.296193
1934.000000	16.300382
1933.000000	16.344261
1932.000000	16.390833
1931.000000	16.447976
1930.000000	16.524366
1929.000000	16.565652
1928.000000	16.667672
1927.000000	16.750245
1926.000000	16.836508
1925.000000	16.951192
1924.000000	17.065179
1923.000000	17.215566
1922.000000	17.393077
1921.000000	17.557426
1920.000000	17.727558
1919.000000	17.900283
1918.000000	18.078293
1917.000000	18.268271
1916.000000	18.508810
1915.000000	18.768695
1914.000000	19.056105
1913.000000	19.377820
1912.000000	19.676001
1911.000000	19.961117
1910.000000	20.241446
1909.000000	20.545809
1908.000000	20.961466
1907.000000	21.391583
1906.000000	21.896894
1905.000000	22.386747
1904.000000	22.843093
1903.000000	23.328957
1902.000000	23.835863
1901.000000	24.395923
1900.000000	24.994976
1899.000000	25.594727
1898.000000	26.206644
1897.000000	26.753142
1896.000000	27.267328
1895.000000	27.847433
1894.000000	28.455262
1893.000000	29.108466
1892.000000	29.775432
1891.000000	30.369997
1890.000000	30.936639
1889.000000	31.529709
1888.000000	32.046687
1887.000000	32.550701
1886.000000	33.052920
1885.000000	33.583960
1884.000000	34.046987
1883.000000	34.505427
1882.000000	34.889471
1881.000000	35.241004
1880.000000	35.587551
1879.000000	35.939284
1878.000000	36.270573
1877.000000	36.575635
1876.000000	36.880995
1875.000000	37.186555
1874.000000	37.452623
1873.000000	37.701639
1872.000000	37.933402
1871.000000	38.118193
1870.000000	38.266585
1869.000000	38.422656
1868.000000	38.533152
1867.000000	38.603260
1866.000000	38.676758
1865.000000	38.773192
1864.000000	38.871921
1863.000000	38.979525
1862.000000	39.080647
1861.000000	39.191143
1860.000000	39.292166
1859.000000	39.351901
1858.000000	39.405354
1857.000000	39.449134
1856.000000	39.495008
1855.000000	39.550256
1854.000000	39.559132
1853.000000	39.565514
1852.000000	39.596529
1851.000000	39.617371
1850.000000	39.660353
1849.000000	39.695656
1848.000000	39.685185
1847.000000	39.622258
1846.000000	39.558832
1845.000000	39.533602
1844.000000	39.536494
1843.000000	39.584661
1842.000000	39.583963
1841.000000	39.536294
1840.000000	39.496803
1839.000000	39.461301
1838.000000	39.425399
1837.000000	39.372345
1836.000000	39.313806
1835.000000	39.247588
1834.000000	39.179077
1833.000000	39.144571
1832.000000	39.135995
1831.000000	39.118343
1830.000000	39.090919
1829.000000	39.053921
1828.000000	39.019116
1827.000000	38.998972
1826.000000	38.969253
1825.000000	38.956189
1824.000000	38.983614
1823.000000	39.057810
1822.000000	39.103883
1821.000000	39.097102
1820.000000	39.073068
1819.000000	39.042153
1818.000000	39.031781
1817.000000	39.047438
1816.000000	39.050430
1815.000000	39.026197
1814.000000	39.020512
1813.000000	39.013731
1812.000000	38.985509
1811.000000	38.942327
1810.000000	38.909817
1809.000000	38.898648
1808.000000	38.882093
1807.000000	38.864641
1806.000000	38.832928
1805.000000	38.805803
1804.000000	38.805903
1803.000000	38.810091
1802.000000	38.802113
1801.000000	38.764317
1800.000000	38.723429
1799.000000	38.702886
1798.000000	38.688426
1797.000000	38.675760
1796.000000	38.662297
1795.000000	38.635671
1794.000000	38.621510
1793.000000	38.610739
1792.000000	38.597875
1791.000000	38.602562
1790.000000	38.594982
1789.000000	38.594185
1788.000000	38.608346
1787.000000	38.618418
1786.000000	38.622008
1785.000000	38.624501
1784.000000	38.622507
1783.000000	38.610340
1782.000000	38.608445
1781.000000	38.584711
1780.000000	38.568655
1779.000000	38.549707
1778.000000	38.517296
1777.000000	38.487877
1776.000000	38.447887
1775.000000	38.391442
1774.000000	38.342477
1773.000000	38.301290
1772.000000	38.260602
1771.000000	38.208744
1770.000000	38.169652
1769.000000	38.131357
1768.000000	38.085882
1767.000000	38.042003
1766.000000	38.033825
1765.000000	38.010789
1764.000000	37.984760
1763.000000	37.978777
1762.000000	37.979475
1761.000000	37.996229
1760.000000	38.015177
1759.000000	38.017071
1758.000000	38.041604
1757.000000	38.043898
1756.000000	38.050679
1755.000000	38.066236
1754.000000	38.097849
1753.000000	38.079101
1752.000000	38.080896
1751.000000	38.080697
1750.000000	38.046291
1749.000000	38.004406
1748.000000	37.968106
1747.000000	37.888824
1746.000000	37.821011
1745.000000	37.740133
1744.000000	37.643598
1743.000000	37.528814
1742.000000	37.433775
1741.000000	37.317096
1740.000000	37.235421
1739.000000	37.141579
1738.000000	37.032379
1737.000000	36.955191
1736.000000	36.886281
1735.000000	36.800117
1734.000000	36.725921
1733.000000	36.614727
1732.000000	36.540731
1731.000000	36.471720
1730.000000	36.386455
1729.000000	36.318442
1728.000000	36.253520
1727.000000	36.210040
1726.000000	36.150204
1725.000000	36.129661
1724.000000	36.144420
1723.000000	36.227292
1722.000000	36.355939
1721.000000	36.525173
1720.000000	36.759130
1719.000000	37.013730
1718.000000	37.289173
1717.000000	37.581669
1716.000000	37.850330
1715.000000	38.099644
1714.000000	38.340582
1713.000000	38.533252
1712.000000	38.748760
1711.000000	38.921186
1710.000000	39.071672
1709.000000	39.210490
1708.000000	39.332156
1707.000000	39.433477
1706.000000	39.540782
1705.000000	39.583864
1704.000000	39.657262
1703.000000	39.702039
1702.000000	39.706925
1701.000000	39.737242
1700.000000	39.733353
1699.000000	39.738937
1698.000000	39.737840
1697.000000	39.694958
1696.000000	39.637915
1695.000000	39.558633
1694.000000	39.441355
1693.000000	39.333153
1692.000000	39.190645
1691.000000	39.060503
1690.000000	38.979226
1689.000000	38.958483
1688.000000	38.961375
1687.000000	39.042552
1686.000000	39.182567
1685.000000	39.351802
1684.000000	39.600817
1683.000000	39.839361
1682.000000	40.100044
1681.000000	40.341381
1680.000000	40.571249
1679.000000	40.777382
1678.000000	40.967160
1677.000000	41.145570
1676.000000	41.314405
1675.000000	41.487230
1674.000000	41.668731
1673.000000	41.823705
1672.000000	42.024453
1671.000000	42.230487
1670.000000	42.398724
1669.000000	42.600868
1668.000000	42.782968
1667.000000	42.976236
1666.000000	43.135797
1665.000000	43.296855
1664.000000	43.467186
1663.000000	43.612487
1662.000000	43.772946
1661.000000	43.904284
1660.000000	44.037219
1659.000000	44.144923
1658.000000	44.242554
1657.000000	44.336696
1656.000000	44.408099
1655.000000	44.459458
1654.000000	44.503038
1653.000000	44.564669
1652.000000	44.601168
1651.000000	44.619518
1650.000000	44.640760
1649.000000	44.650333
1648.000000	44.665591
1647.000000	44.677858
1646.000000	44.673968
1645.000000	44.669580
1644.000000	44.664295
1643.000000	44.665292
1642.000000	44.675165
1641.000000	44.675963
1640.000000	44.674267
1639.000000	44.675564
1638.000000	44.663198
1637.000000	44.656915
1636.000000	44.642455
1635.000000	44.622111
1634.000000	44.587406
1633.000000	44.563073
1632.000000	44.523283
1631.000000	44.491071
1630.000000	44.449685
1629.000000	44.417573
1628.000000	44.377084
1627.000000	44.339288
1626.000000	44.292318
1625.000000	44.253325
1624.000000	44.217822
1623.000000	44.174641
1622.000000	44.137543
1621.000000	44.107526
1620.000000	44.076511
1619.000000	44.037319
1618.000000	44.008298
1617.000000	43.980475
1616.000000	43.937493
1615.000000	43.887830
1614.000000	43.843651
1613.000000	43.795484
1612.000000	43.752602
1611.000000	43.695758
1610.000000	43.627446
1609.000000	43.558635
1608.000000	43.495808
1607.000000	43.419318
1606.000000	43.334252
1605.000000	43.253973
1604.000000	43.184264
1603.000000	43.107675
1602.000000	43.028692
1601.000000	42.953499
1600.000000	42.871025
1599.000000	42.788253
1598.000000	42.722235
1597.000000	42.656017
1596.000000	42.589400
1595.000000	42.537642
1594.000000	42.475912
1593.000000	42.416774
1592.000000	42.371798
1591.000000	42.330212
1590.000000	42.280350
1589.000000	42.232681
1588.000000	42.185510
1587.000000	42.143526
1586.000000	42.085685
1585.000000	42.056365
1584.000000	42.015577
1583.000000	41.954944
1582.000000	41.933005
1581.000000	41.911663
1580.000000	41.892815
1579.000000	41.870476
1578.000000	41.856315
1577.000000	41.853324
1576.000000	41.845744
1575.000000	41.846044
1574.000000	41.854321
1573.000000	41.866487
1572.000000	41.866787
1571.000000	41.875263
1570.000000	41.899497
1569.000000	41.935199
1568.000000	41.961227
1567.000000	41.984762
1566.000000	42.014281
1565.000000	42.027943
1564.000000	42.034924
1563.000000	42.054371
1562.000000	42.065740
1561.000000	42.056864
1560.000000	42.048686
1559.000000	42.039312
1558.000000	42.018071
1557.000000	41.982070
1556.000000	41.934301
1555.000000	41.882244
1554.000000	41.824603
1553.000000	41.754196
1552.000000	41.685286
1551.000000	41.624852
1550.000000	41.547564
1549.000000	41.463795
1548.000000	41.385111
1547.000000	41.316599
1546.000000	41.243401
1545.000000	41.185061
1544.000000	41.146268
1543.000000	41.100194
1542.000000	41.051129
1541.000000	41.012436
1540.000000	40.972146
1539.000000	40.940733
1538.000000	40.903535
1537.000000	40.862548
1536.000000	40.816275
1535.000000	40.758434
1534.000000	40.690521
1533.000000	40.633877
1532.000000	40.582817
1531.000000	40.511613
1530.000000	40.449882
1529.000000	40.380573
1528.000000	40.312161
1527.000000	40.239262
1526.000000	40.172246
1525.000000	40.109718
1524.000000	40.019266
1523.000000	39.942178
1522.000000	39.868680
1521.000000	39.795881
1520.000000	39.708222
1519.000000	39.625748
1518.000000	39.537292
1517.000000	39.452924
1516.000000	39.361774
1515.000000	39.275611
1514.000000	39.186456
1513.000000	39.095905
1512.000000	38.988201
1511.000000	38.909418
1510.000000	38.814878
1509.000000	38.722033
1508.000000	38.631482
1507.000000	38.529662
1506.000000	38.432130
1505.000000	38.338787
1504.000000	38.272968
1503.000000	38.202163
1502.000000	38.125773
1501.000000	38.060652
1500.000000	38.004007
1499.000000	37.956538
1498.000000	37.920337
1497.000000	37.878552
1496.000000	37.839859
1495.000000	37.833377
1494.000000	37.834374
1493.000000	37.831980
1492.000000	37.844147
1491.000000	37.854119
1490.000000	37.876658
1489.000000	37.905977
1488.000000	37.896702
1487.000000	37.925324
1486.000000	37.937291
1485.000000	37.974289
1484.000000	37.998921
1483.000000	38.035022
1482.000000	38.081095
1481.000000	38.119290
1480.000000	38.125074
1479.000000	38.181619
1478.000000	38.229587
1477.000000	38.271173
1476.000000	38.330410
1475.000000	38.402911
1474.000000	38.487079
1473.000000	38.580522
1472.000000	38.674663
1471.000000	38.751851
1470.000000	38.836718
1469.000000	38.908919
1468.000000	39.037865
1467.000000	39.115751
1466.000000	39.212684
1465.000000	39.316299
1464.000000	39.423903
1463.000000	39.531009
1462.000000	39.645295
1461.000000	39.776434
1460.000000	39.874265
1459.000000	39.968506
1458.000000	40.107823
1457.000000	40.223904
1456.000000	40.336594
1455.000000	40.429139
1454.000000	40.536245
1453.000000	40.660703
1452.000000	40.777083
1451.000000	40.895058
1450.000000	40.955193
1449.000000	41.033976
1448.000000	41.158035
1447.000000	41.305330
1446.000000	41.388801
1445.000000	41.493613
1444.000000	41.556041
1443.000000	41.689973
1442.000000	41.804259
1441.000000	41.904583
1440.000000	42.020863
1439.000000	42.158584
1438.000000	42.271574
1437.000000	42.387355
1436.000000	42.503336
1435.000000	42.660803
1434.000000	42.807001
1433.000000	42.979926
1432.000000	43.117647
1431.000000	43.246094
1430.000000	43.424105
1429.000000	43.631534
1428.000000	43.798575
1427.000000	44.021761
1426.000000	44.228393
1425.000000	44.470727
1424.000000	44.686833
1423.000000	44.913609
1422.000000	45.136397
1421.000000	45.452827
1420.000000	45.754497
1419.000000	46.032732
1418.000000	46.273570
1417.000000	46.586809
1416.000000	46.943029
1415.000000	47.327073
1414.000000	47.663548
1413.000000	47.992843
1412.000000	48.349063
1411.000000	48.777486
1410.000000	49.258164
1409.000000	49.642108
1408.000000	50.065045
1407.000000	50.459162
1406.000000	50.873822
1405.000000	51.262453
1404.000000	51.686786
1403.000000	52.037921
1402.000000	52.517702
1401.000000	52.967665
1400.000000	53.291574
1399.000000	53.514760
1398.000000	53.847645
1397.000000	54.301896
1396.000000	54.701298
1395.000000	54.945726
1394.000000	55.187860
1393.000000	55.533111
1392.000000	55.821219
1391.000000	56.072129
1390.000000	56.371705
1389.000000	56.757744
1388.000000	56.988011
1387.000000	57.249292
1386.000000	57.515859
1385.000000	57.845054
1384.000000	58.018876
1383.000000	58.247049
1382.000000	58.402920
1381.000000	58.490579
1380.000000	58.622516
1379.000000	58.711871
1378.000000	58.800726
1377.000000	58.893471
1376.000000	58.993197
1375.000000	59.085543
1374.000000	59.228750
1373.000000	59.394494
1372.000000	59.488834
1371.000000	59.582178
1370.000000	59.660961
1369.000000	59.819725
1368.000000	59.902298
1367.000000	59.972405
1366.000000	60.093173
1365.000000	60.168266
1364.000000	60.233487
1363.000000	60.375098
1362.000000	60.397436
1361.000000	60.392051
1360.000000	60.366322
1359.000000	60.450191
1358.000000	60.498159
1357.000000	60.580034
1356.000000	60.701999
1355.000000	60.802323
1354.000000	60.861460
1353.000000	60.965275
1352.000000	61.168317
1351.000000	61.337252
1350.000000	61.520050
1349.000000	61.718903
1348.000000	61.895517
1347.000000	62.041815
1346.000000	62.187415
1345.000000	62.366123
1344.000000	62.515513
1343.000000	62.655129
1342.000000	62.801327
1341.000000	62.921297
1340.000000	63.034087
1339.000000	63.165126
1338.000000	63.280709
1337.000000	63.372157
1336.000000	63.465899
1335.000000	63.551165
1334.000000	63.631345
1333.000000	63.713519
1332.000000	63.797887
1331.000000	63.865401
1330.000000	63.926633
1329.000000	63.986568
1328.000000	64.033040
1327.000000	64.070936
1326.000000	64.116311
1325.000000	64.165675
1324.000000	64.217832
1323.000000	64.244459
1322.000000	64.270188
1321.000000	64.314067
1320.000000	64.347077
1319.000000	64.364030
1318.000000	64.379288
1317.000000	64.407610
1316.000000	64.442514
1315.000000	64.466349
1314.000000	64.496067
1313.000000	64.523492
1312.000000	64.534860
1311.000000	64.551714
1310.000000	64.572956
1309.000000	64.581632
1308.000000	64.612646
1307.000000	64.631295
1306.000000	64.634486
1305.000000	64.646753
1304.000000	64.644758
1303.000000	64.643262
1302.000000	64.642863
1301.000000	64.633389
1300.000000	64.636581
1299.000000	64.646952
1298.000000	64.636581
1297.000000	64.619727
1296.000000	64.618032
1295.000000	64.599981
1294.000000	64.572756
1293.000000	64.562385
1292.000000	64.544633
1291.000000	64.517309
1290.000000	64.493574
1289.000000	64.472233
1288.000000	64.440121
1287.000000	64.410801
1286.000000	64.373604
1285.000000	64.331819
1284.000000	64.303197
1283.000000	64.276571
1282.000000	64.243162
1281.000000	64.207859
1280.000000	64.177842
1279.000000	64.149021
1278.000000	64.129874
1277.000000	64.107436
1276.000000	64.083302
1275.000000	64.073329
1274.000000	64.064454
1273.000000	64.050592
1272.000000	64.031843
1271.000000	64.013594
1270.000000	64.005616
1269.000000	64.006713
1268.000000	64.001427
1267.000000	63.982379
1266.000000	63.982978
1265.000000	63.967620
1264.000000	63.944484
1263.000000	63.937702
1262.000000	63.922344
1261.000000	63.904892
1260.000000	63.897513
1259.000000	63.909380
1258.000000	63.892227
1257.000000	63.870387
1256.000000	63.873379
1255.000000	63.865002
1254.000000	63.843960
1253.000000	63.806762
1252.000000	63.789609
1251.000000	63.760988
1250.000000	63.710228
1249.000000	63.656675
1248.000000	63.607610
1247.000000	63.576495
1246.000000	63.521746
1245.000000	63.462110
1244.000000	63.414341
1243.000000	63.359891
1242.000000	63.298460
1241.000000	63.256475
1240.000000	63.203521
1239.000000	63.148572
1238.000000	63.084448
1237.000000	63.045256
1236.000000	63.020025
1235.000000	62.973753
1234.000000	62.930871
1233.000000	62.882005
1232.000000	62.835932
1231.000000	62.795144
1230.000000	62.756650
1229.000000	62.725136
1228.000000	62.685645
1227.000000	62.645754
1226.000000	62.617133
1225.000000	62.579138
1224.000000	62.543236
1223.000000	62.500354
1222.000000	62.463855
1221.000000	62.442513
1220.000000	62.404817
1219.000000	62.375298
1218.000000	62.335807
1217.000000	62.307285
1216.000000	62.277367
1215.000000	62.249544
1214.000000	62.217233
1213.000000	62.154007
1212.000000	62.113717
1211.000000	62.066547
1210.000000	62.027455
1209.000000	61.962633
1208.000000	61.922842
1207.000000	61.854430
1206.000000	61.795791
1205.000000	61.730671
1204.000000	61.678414
1203.000000	61.597636
1202.000000	61.547275
1201.000000	61.486243
1200.000000	61.425410
1199.000000	61.361186
1198.000000	61.276320
1197.000000	61.193248
1196.000000	61.114565
1195.000000	61.042363
1194.000000	60.953208
1193.000000	60.878414
1192.000000	60.786866
1191.000000	60.717057
1190.000000	60.630296
1189.000000	60.575945
1188.000000	60.522991
1187.000000	60.503744
1186.000000	60.484297
1185.000000	60.456574
1184.000000	60.464253
1183.000000	60.478314
1182.000000	60.478314
1181.000000	60.499556
1180.000000	60.530371
1179.000000	60.563181
1178.000000	60.573552
1177.000000	60.598284
1176.000000	60.622617
1175.000000	60.629997
1174.000000	60.657920
1173.000000	60.699605
1172.000000	60.747972
1171.000000	60.798833
1170.000000	60.856873
1169.000000	60.920797
1168.000000	60.971558
1167.000000	61.054629
1166.000000	61.168217
1165.000000	61.235133
1164.000000	61.339346
1163.000000	61.418130
1162.000000	61.509778
1161.000000	61.581082
1160.000000	61.662159
1159.000000	61.744333
1158.000000	61.821022
1157.000000	61.888736
1156.000000	61.941890
1155.000000	61.989260
1154.000000	62.021371
1153.000000	62.076121
1152.000000	62.090182
1151.000000	62.114515
1150.000000	62.144433
1149.000000	62.144932
1148.000000	62.142738
1147.000000	62.150416
1146.000000	62.149718
1145.000000	62.150317
1144.000000	62.147125
1143.000000	62.140244
1142.000000	62.169065
1141.000000	62.178639
1140.000000	62.199182
1139.000000	62.253234
1138.000000	62.274076
1137.000000	62.319452
1136.000000	62.378589
1135.000000	62.410601
1134.000000	62.409504
1133.000000	62.404019
1132.000000	62.429649
1131.000000	62.467245
1130.000000	62.505141
1129.000000	62.477517
1128.000000	62.480509
1127.000000	62.502748
1126.000000	62.483301
1125.000000	62.460963
1124.000000	62.464154
1123.000000	62.450392
1122.000000	62.409205
1121.000000	62.369215
1120.000000	62.328028
1119.000000	62.302199
1118.000000	62.272979
1117.000000	62.213742
1116.000000	62.171060
1115.000000	62.116210
1114.000000	62.066348
1113.000000	62.015886
1112.000000	61.976794
1111.000000	61.928626
1110.000000	61.885445
1109.000000	61.849145
1108.000000	61.797686
1107.000000	61.742239
1106.000000	61.687290
1105.000000	61.627853
1104.000000	61.583076
1103.000000	61.536205
1102.000000	61.481456
1101.000000	61.430097
1100.000000	61.360688
1099.000000	61.321994
1098.000000	61.262857
1097.000000	61.194245
1096.000000	61.142687
1095.000000	61.061710
1094.000000	61.021321
1093.000000	60.960987
1092.000000	60.889184
1091.000000	60.817382
1090.000000	60.752660
1089.000000	60.700802
1088.000000	60.643659
1087.000000	60.569563
1086.000000	60.485694
1085.000000	60.432739
1084.000000	60.360338
1083.000000	60.282153
1082.000000	60.203071
1081.000000	60.146726
1080.000000	60.074724
1079.000000	59.996339
1078.000000	59.926332
1077.000000	59.859116
1076.000000	59.794793
1075.000000	59.728775
1074.000000	59.669039
1073.000000	59.603120
1072.000000	59.536803
1071.000000	59.478862
1070.000000	59.429797
1069.000000	59.377441
1068.000000	59.312719
1067.000000	59.249991
1066.000000	59.181280
1065.000000	59.127029
1064.000000	59.076767
1063.000000	59.023015
1062.000000	58.954903
1061.000000	58.885194
1060.000000	58.830844
1059.000000	58.768016
1058.000000	58.704790
1057.000000	58.667194
1056.000000	58.613142
1055.000000	58.559889
1054.000000	58.517405
1053.000000	58.455276
1052.000000	58.406111
1051.000000	58.349766
1050.000000	58.293322
1049.000000	58.261409
1048.000000	58.222815
1047.000000	58.180432
1046.000000	58.129672
1045.000000	58.077814
1044.000000	58.039021
1043.000000	57.993346
1042.000000	57.952858
1041.000000	57.915959
1040.000000	57.888335
1039.000000	57.854528
1038.000000	57.807358
1037.000000	57.763678
1036.000000	57.723089
1035.000000	57.685892
1034.000000	57.651387
1033.000000	57.617679
1032.000000	57.576891
1031.000000	57.541190
1030.000000	57.516856
1029.000000	57.486839
1028.000000	57.452633
1027.000000	57.437076
1026.000000	57.413740
1025.000000	57.393994
1024.000000	57.385318
1023.000000	57.364475
1022.000000	57.351411
1021.000000	57.332763
1020.000000	57.316607
1019.000000	57.319699
1018.000000	57.318103
1017.000000	57.306934
1016.000000	57.297559
1015.000000	57.294967
1014.000000	57.311322
1013.000000	57.316408
1012.000000	57.333361
1011.000000	57.362082
1010.000000	57.356098
1009.000000	57.363279
1008.000000	57.381429
1007.000000	57.410649
1006.000000	57.440467
1005.000000	57.454428
1004.000000	57.488435
1003.000000	57.526131
1002.000000	57.537998
1001.000000	57.568116
1000.000000	57.614488
999.000000	57.645104
998.000000	57.677415
997.000000	57.724984
996.000000	57.762082
995.000000	57.807956
994.000000	57.845553
993.000000	57.895914
992.000000	57.966620
991.000000	58.025658
990.000000	58.064949
989.000000	58.131965
988.000000	58.186515
987.000000	58.246450
986.000000	58.307782
985.000000	58.386067
984.000000	58.461160
983.000000	58.531666
982.000000	58.598981
981.000000	58.680557
980.000000	58.760736
979.000000	58.844107
978.000000	58.904840
977.000000	58.983723
976.000000	59.064003
975.000000	59.159540
974.000000	59.235531
973.000000	59.317306
972.000000	59.405763
971.000000	59.527827
970.000000	59.613691
969.000000	59.696264
968.000000	59.815437
967.000000	59.905788
966.000000	60.013492
965.000000	60.093572
964.000000	60.196688
963.000000	60.320149
962.000000	60.406412
961.000000	60.522592
960.000000	60.615537
959.000000	60.721047
958.000000	60.847000
957.000000	60.931169
956.000000	61.044457
955.000000	61.164826
954.000000	61.265450
953.000000	61.363979
952.000000	61.504991
951.000000	61.604418
950.000000	61.743435
949.000000	61.853732
948.000000	61.971409
947.000000	62.107235
946.000000	62.220224
945.000000	62.334809
944.000000	62.443710
943.000000	62.558295
942.000000	62.671185
941.000000	62.784473
940.000000	62.924189
939.000000	63.035383
938.000000	63.161536
937.000000	63.287889
936.000000	63.421522
935.000000	63.555054
934.000000	63.697862
933.000000	63.816137
932.000000	63.974800
931.000000	64.093873
930.000000	64.214042
929.000000	64.352362
928.000000	64.495967
927.000000	64.632093
926.000000	64.791854
925.000000	64.942240
924.000000	65.089037
923.000000	65.249795
922.000000	65.373854
921.000000	65.519054
920.000000	65.670638
919.000000	65.828005
918.000000	65.988663
917.000000	66.116512
916.000000	66.291131
915.000000	66.446504
914.000000	66.589711
913.000000	66.748773
912.000000	66.906539
911.000000	67.061314
910.000000	67.249895
909.000000	67.414742
908.000000	67.572708
907.000000	67.678517
906.000000	67.822920
905.000000	68.005019
904.000000	68.164381
903.000000	68.306490
902.000000	68.446505
901.000000	68.587916
900.000000	68.729328
899.000000	68.868046
898.000000	69.020527
897.000000	69.183279
896.000000	69.317610
895.000000	69.495322
894.000000	69.651791
893.000000	69.792105
892.000000	69.966227
891.000000	70.163185
890.000000	70.340298
889.000000	70.516215
888.000000	70.672684
887.000000	70.874031
886.000000	71.046556
885.000000	71.228456
884.000000	71.413547
883.000000	71.618384
882.000000	71.815043
881.000000	72.012500
880.000000	72.206467
879.000000	72.411803
878.000000	72.622723
877.000000	72.837133
876.000000	73.078868
875.000000	73.297168
874.000000	73.551569
873.000000	73.805670
872.000000	74.077024
871.000000	74.326139
870.000000	74.592806
869.000000	74.844115
868.000000	75.120555
867.000000	75.366080
866.000000	75.630253
865.000000	75.846060
864.000000	76.060869
863.000000	76.245462
862.000000	76.476128
861.000000	76.636686
860.000000	76.798043
859.000000	77.110284
858.000000	77.322700
857.000000	76.868600
856.000000	77.358700
855.000000	77.740800
854.000000	78.533700
853.000000	79.178000
852.000000	79.209300
851.000000	79.782800
850.000000	79.886000
849.000000	80.734200
848.000000	80.937100
847.000000	81.340800
846.000000	81.806600
845.000000	82.141000
844.000000	82.721400
843.000000	83.210600
842.000000	83.708700
841.000000	84.181000
840.000000	84.583500
839.000000	85.031100
838.000000	85.572200
837.000000	86.018400
836.000000	86.628500
835.000000	87.026500
834.000000	87.470800
833.000000	87.914900
832.000000	88.352500
831.000000	88.673800
830.000000	89.090900
829.000000	89.552600
828.000000	89.986500
827.000000	90.172100
826.000000	90.297900
825.000000	90.719400
824.000000	91.214100
823.000000	91.402000
822.000000	91.652300
821.000000	91.822700
820.000000	92.128200
819.000000	92.180900
818.000000	92.287700
817.000000	92.617800
816.000000	92.845800
815.000000	93.175300
814.000000	93.237000
813.000000	93.215600
812.000000	93.454000
811.000000	93.592300
810.000000	93.674600
809.000000	93.737200
808.000000	93.871700
807.000000	93.770400
806.000000	94.032100
805.000000	94.226600
804.000000	94.275000
803.000000	94.339000
802.000000	94.351600
801.000000	94.334700
800.000000	94.392200
799.000000	94.633000
798.000000	94.702400
797.000000	94.764300
796.000000	94.791700
795.000000	94.876700
794.000000	95.093900
793.000000	95.080100
792.000000	95.153000
791.000000	95.184800
790.000000	95.286400
789.000000	95.350300
788.000000	95.476100
787.000000	95.591400
786.000000	95.771300
785.000000	95.882400
784.000000	95.948700
783.000000	96.060900
782.000000	96.046400
781.000000	96.119000
780.000000	96.167800
779.000000	96.259300
778.000000	96.266000
777.000000	96.200400
776.000000	96.225600
775.000000	96.225500
774.000000	96.266300
773.000000	96.279600
772.000000	96.244300
771.000000	96.204900
770.000000	96.123900
769.000000	96.136800
768.000000	96.207700
767.000000	96.161100
766.000000	96.087600
765.000000	96.070600
764.000000	95.937700
763.000000	95.795400
762.000000	95.648200
761.000000	95.496400
760.000000	95.329700
759.000000	95.201200
758.000000	95.010200
757.000000	94.744300
756.000000	94.556000
755.000000	94.334500
754.000000	94.084100
753.000000	93.915200
752.000000	93.704700
751.000000	93.386400
750.000000	93.153400
749.000000	92.945300
748.000000	92.637100
747.000000	92.371800
746.000000	92.022800
745.000000	91.708700
744.000000	91.417400
743.000000	91.016500
742.000000	90.596200
741.000000	90.214100
740.000000	89.907400
739.000000	89.420000
738.000000	88.835900
737.000000	88.419400
736.000000	87.913400
735.000000	87.396600
734.000000	86.905800
733.000000	86.363400
732.000000	85.792900
731.000000	85.207900
730.000000	84.733500
729.000000	84.243400
728.000000	83.687500
727.000000	83.254700
726.000000	82.813500
725.000000	82.354200
724.000000	81.868700
723.000000	81.401800
722.000000	80.985200
721.000000	80.526700
720.000000	80.074200
719.000000	79.691500
718.000000	79.284200
717.000000	78.826900
716.000000	78.467400
715.000000	78.082800
714.000000	77.694900
713.000000	77.342200
712.000000	76.938800
711.000000	76.629800
710.000000	76.359700
709.000000	76.035700
708.000000	75.780700
707.000000	75.494700
706.000000	75.253300
705.000000	74.990200
704.000000	74.737000
703.000000	74.492700
702.000000	74.263700
701.000000	74.051200
700.000000	73.796900
699.000000	73.458200
698.000000	73.087600
697.000000	72.791400
696.000000	72.459500
695.000000	71.994800
694.000000	71.503700
693.000000	71.073300
692.000000	70.570500
691.000000	70.083600
690.000000	69.523100
689.000000	69.025000
688.000000	68.523600
687.000000	68.077500
686.000000	67.601400
685.000000	67.192800
684.000000	66.771400
683.000000	66.385200
682.000000	66.025300
681.000000	65.676400
680.000000	65.325900
679.000000	64.997800
678.000000	64.673900
677.000000	64.347100
676.000000	64.030400
675.000000	63.719500
674.000000	63.395800
673.000000	63.105100
672.000000	62.735500
671.000000	62.425700
670.000000	62.150000
669.000000	61.871500
668.000000	61.622200
667.000000	61.416500
666.000000	61.283600
665.000000	61.205900
664.000000	61.088000
663.000000	61.098100
662.000000	61.110900
661.000000	61.095900
660.000000	61.146900
659.000000	61.184900
658.000000	61.212700
657.000000	61.193000
656.000000	61.256500
655.000000	61.224100
654.000000	61.105800
653.000000	60.985700
652.000000	60.795500
651.000000	60.606500
650.000000	60.411500
649.000000	60.204300
648.000000	59.973000
647.000000	59.808400
646.000000	59.654800
645.000000	59.526600
644.000000	59.451500
643.000000	59.366100
642.000000	59.347100
641.000000	59.368500
640.000000	59.343700
639.000000	59.414200
638.000000	59.493800
637.000000	59.576700
636.000000	59.609800
635.000000	59.699200
634.000000	59.718100
633.000000	59.736100
632.000000	59.801000
631.000000	59.809000
630.000000	59.886100
629.000000	59.945500
628.000000	59.982100
627.000000	60.107600
626.000000	60.215700
625.000000	60.390000
624.000000	60.624300
623.000000	60.859400
622.000000	61.180500
621.000000	61.547600
620.000000	61.921200
619.000000	62.315800
618.000000	62.810200
617.000000	63.227800
616.000000	63.721700
615.000000	64.191800
614.000000	64.720700
613.000000	65.212700
612.000000	65.654700
611.000000	66.172700
610.000000	66.646600
609.000000	67.107500
608.000000	67.614100
607.000000	68.153300
606.000000	68.613800
605.000000	69.124000
604.000000	69.604300
603.000000	70.136600
602.000000	70.601300
601.000000	71.112200
600.000000	71.566200
599.000000	72.040500
598.000000	72.485200
597.000000	72.949900
596.000000	73.444500
595.000000	73.849100
594.000000	74.245900
593.000000	74.635800
592.000000	74.975700
591.000000	75.264300
590.000000	75.515300
589.000000	75.765300
588.000000	75.891000
587.000000	76.083100
586.000000	76.163500
585.000000	76.310500
584.000000	76.382700
583.000000	76.411800
582.000000	76.397100
581.000000	76.398900
580.000000	76.411600
579.000000	76.284600
578.000000	76.182900
577.000000	76.072700
576.000000	75.946200
575.000000	75.796600
574.000000	75.654300
573.000000	75.519200
572.000000	75.379300
571.000000	75.225500
570.000000	75.065500
569.000000	74.860500
568.000000	74.616000
567.000000	74.322200
566.000000	74.062400
565.000000	73.798900
564.000000	73.507500
563.000000	73.210100
562.000000	72.857100
561.000000	72.552600
560.000000	72.158300
559.000000	71.721800
558.000000	71.303800
557.000000	70.859500
556.000000	70.440300
555.000000	69.946500
554.000000	69.483600
553.000000	69.008700
552.000000	68.446100
551.000000	67.858600
550.000000	67.262100
549.000000	66.619200
548.000000	65.961500
547.000000	65.266400
546.000000	64.544400
545.000000	63.783200
544.000000	63.005700
543.000000	62.166000
542.000000	61.305000
541.000000	60.408700
540.000000	59.486000
539.000000	58.534900
538.000000	57.593200
537.000000	56.662700
536.000000	55.707200
535.000000	54.736400
534.000000	53.795500
533.000000	52.852100
532.000000	51.904600
531.000000	51.004300
530.000000	50.121300
529.000000	49.288800
528.000000	48.482200
527.000000	47.704600
526.000000	46.955800
525.000000	46.230700
524.000000	45.517600
523.000000	44.814900
522.000000	44.144700
521.000000	43.501300
520.000000	42.869200
519.000000	42.262200
518.000000	41.639000
517.000000	41.039600
516.000000	40.427800
515.000000	39.820300
514.000000	39.185000
513.000000	38.560700
512.000000	37.934800
511.000000	37.293500
510.000000	36.645200
509.000000	36.002300
508.000000	35.324900
507.000000	34.655500
506.000000	33.980500
505.000000	33.315300
504.000000	32.655100
503.000000	31.984800
502.000000	31.345700
501.000000	30.735400
500.000000	30.157700
499.000000	29.609500
498.000000	29.128900
497.000000	28.698900
496.000000	28.299600
495.000000	27.974500
494.000000	27.714200
493.000000	27.499700
492.000000	27.320900
491.000000	27.216100
490.000000	27.195100
489.000000	27.199700
488.000000	27.263600
487.000000	27.358900
486.000000	27.484000
485.000000	27.636700
484.000000	27.828500
483.000000	28.030500
482.000000	28.236000
481.000000	28.447800
480.000000	28.642500
479.000000	28.837400
478.000000	29.023700
477.000000	29.189100
476.000000	29.359300
475.000000	29.511300
474.000000	29.622800
473.000000	29.732000
472.000000	29.815200
471.000000	29.868900
470.000000	29.900900
469.000000	29.930700
468.000000	29.946000
467.000000	29.927500
466.000000	29.879000
465.000000	29.807300
464.000000	29.742200
463.000000	29.648700
462.000000	29.522700
461.000000	29.413600
460.000000	29.289300
459.000000	29.135900
458.000000	28.950000
457.000000	28.760200
456.000000	28.577400
455.000000	28.379900
454.000000	28.152500
453.000000	27.905300
452.000000	27.659300
451.000000	27.411800
450.000000	27.145200
449.000000	26.843200
448.000000	26.542300
447.000000	26.245200
446.000000	25.927400
445.000000	25.583100
444.000000	25.207900
443.000000	24.838700
442.000000	24.449800
441.000000	24.025700
440.000000	23.618000
439.000000	23.197600
438.000000	22.749700
437.000000	22.301400
436.000000	21.829000
435.000000	21.334800
434.000000	20.838500
433.000000	20.335900
432.000000	19.814900
431.000000	19.280700
430.000000	18.752800
429.000000	18.234400
428.000000	17.698100
427.000000	17.168400
426.000000	16.630900
425.000000	16.102000
424.000000	15.577700
423.000000	15.063500
422.000000	14.556800
421.000000	14.061700
420.000000	13.585300
419.000000	13.129500
418.000000	12.682600
417.000000	12.251200
416.000000	11.852100
415.000000	11.462700
414.000000	11.094600
413.000000	10.750600
412.000000	10.409300
411.000000	10.099000
410.000000	9.807500
409.000000	9.537100
408.000000	9.293500
407.000000	9.060000
406.000000	8.842100
405.000000	8.641500
404.000000	8.468600
403.000000	8.302200
402.000000	8.127300
401.000000	7.987300
400.000000	7.870100
399.000000	7.735200
398.000000	7.624600
397.000000	7.522500
396.000000	7.442800
395.000000	7.349500
394.000000	7.264700
393.000000	7.169400
392.000000	7.099400
391.000000	7.046200
390.000000	6.984300
389.000000	6.928000
388.000000	6.880000
387.000000	6.849600
386.000000	6.807700
385.000000	6.755900
384.000000	6.688900
383.000000	6.650500
382.000000	6.625100
381.000000	6.596600
380.000000	6.555300
379.000000	6.529800
378.000000	6.504500
377.000000	6.490100
376.000000	6.441300
375.000000	6.144800
374.000000	5.955600
373.000000	6.076700
372.000000	6.151800
371.000000	6.095400
370.000000	6.012100
369.000000	6.024300
368.000000	6.191300
367.000000	6.168200
366.000000	6.110500
365.000000	6.096900
364.000000	6.123300
363.000000	6.064100
362.000000	6.142100
361.000000	6.209700
360.000000	6.071200
359.000000	5.999900
358.000000	6.109600
357.000000	6.093300
356.000000	6.074100
355.000000	6.060200
354.000000	6.016500
353.000000	6.048400
352.000000	5.901500
351.000000	5.983100
350.000000	6.060500
349.000000	5.946500
348.000000	5.986900
347.000000	6.026500
346.000000	6.023900
345.000000	5.844300
344.000000	6.018600
343.000000	5.990900
342.000000	5.996100
341.000000	6.007600
340.000000	5.932300
339.000000	5.879000
338.000000	5.937600
337.000000	5.976000
336.000000	6.021600
335.000000	5.815000
334.000000	6.081200
333.000000	6.003500
332.000000	5.890600
331.000000	6.226000
330.000000	6.164400
329.000000	6.032700
328.000000	6.044300
327.000000	6.147700
326.000000	6.028900
325.000000	6.379000
324.000000	6.320400
323.000000	5.957200
322.000000	6.400500
321.000000	6.257500
320.000000	6.501700
319.000000	6.413200
318.000000	6.128600
317.000000	6.286200
316.000000	5.885600
315.000000	5.783100
314.000000	5.787200
313.000000	5.826000
312.000000	5.753800
311.000000	5.827700
310.000000	5.845700
309.000000	5.810800
308.000000	5.857400
307.000000	5.893100
306.000000	5.854100
305.000000	5.804000
304.000000	5.742600
303.000000	5.799200
302.000000	5.840700
301.000000	5.767800
300.000000	5.801800
299.000000	5.842400
298.000000	5.842300
297.000000	5.816500
296.000000	5.850000
295.000000	5.866500
294.000000	5.839700
293.000000	5.822400
292.000000	5.871300
291.000000	5.875000
290.000000	5.855700
289.000000	5.843000
288.000000	5.881100
287.000000	5.923100
286.000000	5.950400
285.000000	5.895000
284.000000	5.921300
283.000000	5.878700
282.000000	5.925800
281.000000	5.943300
280.000000	6.008800
279.000000	5.921000
278.000000	5.939700
277.000000	5.937600
276.000000	5.964200
275.000000	5.987600
274.000000	5.963300
273.000000	5.918400
272.000000	5.969000
271.000000	5.983300
270.000000	6.058500
269.000000	6.056200
268.000000	6.083400
267.000000	6.071700
266.000000	6.111200
265.000000	6.126300
264.000000	6.158700
263.000000	6.183000
262.000000	6.242800
261.000000	6.215800
260.000000	6.269600
259.000000	6.286200
258.000000	6.198100
257.000000	6.304100
256.000000	6.301700
255.000000	6.279800
254.000000	6.332500
253.000000	6.323200
252.000000	6.365400
251.000000	6.319900
250.000000	6.297300
