PE UV       SUBTECH     SPECTRUM    ASCII       PEDS        4.00        
   -1
CICIMAUCR0210-3.Sample.ASC
24/06/12
13:35:32.00
24/06/12
13:35:32.00
Vinicio Soto Monge
C. resplendens. Sex F. Ventral
250,000000
1
Lambda 1050
1050L1511233
PerkinElmer UV WinLab 6.3.2.0749 / 2.02.05 Lambda 900 UV/VIS/NIR, Aug  7 2015 09:38:08

0
0
3350/servo 860,8/2
0
0
UV/VIS
1
1
1
DoubleDePol,CommonBeamDepol,RBeamAtt,SBeamAtt,60mm sphere, WB InGaAs Detector
0
0
0
0
Program
Program
3350/servo 860,8/2
3350/0,2 860,8/0,2
3350/0,2 860,8/0,2
0
15.00
 
 
 
0
 
860,8
319,2
860,8
Front
100
on
S:100 R:100
0
0
0
0
 
0
 
 
 
0
 
 
0
0
0
0
0
 
 
 
 
0
0


0
0
#HDR
-1
-1
#GR
nm
%R
1.0
0.0
2500,000000
-1,000000
2251
8
50,458900
3,367000
#DATA
2482.000000	6.075784
2481.000000	6.005982
2480.000000	5.976728
2479.000000	5.967586
2478.000000	5.883372
2477.000000	6.012220
2476.000000	5.997486
2475.000000	5.945860
2474.000000	5.926716
2473.000000	5.904560
2472.000000	5.899505
2471.000000	5.883264
2470.000000	5.960702
2469.000000	5.941881
2468.000000	5.954895
2467.000000	5.927361
2466.000000	5.913272
2465.000000	5.944892
2464.000000	5.942849
2463.000000	5.954895
2462.000000	5.888104
2461.000000	5.969199
2460.000000	5.957476
2459.000000	5.951345
2458.000000	6.006305
2457.000000	5.968984
2456.000000	5.938009
2455.000000	5.968231
2454.000000	6.010500
2453.000000	6.029429
2452.000000	6.086324
2451.000000	6.150211
2450.000000	6.195383
2449.000000	6.220658
2448.000000	6.240556
2447.000000	6.251311
2446.000000	6.197750
2445.000000	6.273790
2444.000000	6.320253
2443.000000	6.391883
2442.000000	6.405004
2441.000000	6.458458
2440.000000	6.443078
2439.000000	6.470182
2438.000000	6.492015
2437.000000	6.468353
2436.000000	6.543640
2435.000000	6.578595
2434.000000	6.627747
2433.000000	6.655496
2432.000000	6.742614
2431.000000	6.712499
2430.000000	6.765307
2429.000000	6.772621
2428.000000	6.762726
2427.000000	6.814029
2426.000000	6.836615
2425.000000	6.878023
2424.000000	6.925131
2423.000000	6.934811
2422.000000	6.960947
2421.000000	6.954816
2420.000000	6.972132
2419.000000	7.019886
2418.000000	7.035804
2417.000000	7.059143
2416.000000	7.061724
2415.000000	7.090656
2414.000000	7.103992
2413.000000	7.144110
2412.000000	7.153252
2411.000000	7.116468
2410.000000	7.168524
2409.000000	7.210900
2408.000000	7.221440
2407.000000	7.246823
2406.000000	7.256180
2405.000000	7.249942
2404.000000	7.259837
2403.000000	7.291135
2402.000000	7.261880
2401.000000	7.276292
2400.000000	7.325767
2399.000000	7.326735
2398.000000	7.325659
2397.000000	7.367497
2396.000000	7.381372
2395.000000	7.384383
2394.000000	7.385566
2393.000000	7.378791
2392.000000	7.424070
2391.000000	7.459240
2390.000000	7.461069
2389.000000	7.480321
2388.000000	7.494088
2387.000000	7.495486
2386.000000	7.495486
2385.000000	7.502692
2384.000000	7.506456
2383.000000	7.525493
2382.000000	7.534312
2381.000000	7.531516
2380.000000	7.546896
2379.000000	7.533237
2378.000000	7.547326
2377.000000	7.552596
2376.000000	7.543454
2375.000000	7.542917
2374.000000	7.535603
2373.000000	7.555500
2372.000000	7.561846
2371.000000	7.543777
2370.000000	7.534420
2369.000000	7.538615
2368.000000	7.540981
2367.000000	7.543454
2366.000000	7.539582
2365.000000	7.533775
2364.000000	7.525923
2363.000000	7.513340
2362.000000	7.509037
2361.000000	7.497099
2360.000000	7.477417
2359.000000	7.472147
2358.000000	7.461499
2357.000000	7.440849
2356.000000	7.425791
2355.000000	7.403528
2354.000000	7.410734
2353.000000	7.399333
2352.000000	7.380619
2351.000000	7.378898
2350.000000	7.396644
2349.000000	7.403420
2348.000000	7.390406
2347.000000	7.404818
2346.000000	7.435901
2345.000000	7.434073
2344.000000	7.436116
2343.000000	7.454293
2342.000000	7.482149
2341.000000	7.486989
2340.000000	7.501939
2339.000000	7.534097
2338.000000	7.548617
2337.000000	7.543992
2336.000000	7.548294
2335.000000	7.557006
2334.000000	7.558835
2333.000000	7.575398
2332.000000	7.555393
2331.000000	7.546143
2330.000000	7.562922
2329.000000	7.563459
2328.000000	7.538399
2327.000000	7.534312
2326.000000	7.507101
2325.000000	7.486021
2324.000000	7.478923
2323.000000	7.464080
2322.000000	7.437192
2321.000000	7.400624
2320.000000	7.377285
2319.000000	7.360184
2318.000000	7.333618
2317.000000	7.289844
2316.000000	7.260267
2315.000000	7.225742
2314.000000	7.179279
2313.000000	7.134430
2312.000000	7.096248
2311.000000	7.074523
2310.000000	7.042902
2309.000000	6.991169
2308.000000	6.981704
2307.000000	6.966217
2306.000000	6.961484
2305.000000	6.944599
2304.000000	6.918893
2303.000000	6.935026
2302.000000	6.945244
2301.000000	6.960301
2300.000000	6.982887
2299.000000	6.995579
2298.000000	7.025478
2297.000000	7.043547
2296.000000	7.061831
2295.000000	7.115070
2294.000000	7.140775
2293.000000	7.188744
2292.000000	7.228861
2291.000000	7.244457
2290.000000	7.254889
2289.000000	7.268333
2288.000000	7.307160
2287.000000	7.327703
2286.000000	7.339319
2285.000000	7.338996
2284.000000	7.316410
2283.000000	7.322540
2282.000000	7.330177
2281.000000	7.329639
2280.000000	7.296082
2279.000000	7.284897
2278.000000	7.274787
2277.000000	7.259514
2276.000000	7.236068
2275.000000	7.229399
2274.000000	7.226280
2273.000000	7.204447
2272.000000	7.204124
2271.000000	7.190465
2270.000000	7.180785
2269.000000	7.207243
2268.000000	7.209287
2267.000000	7.227786
2266.000000	7.240262
2265.000000	7.276292
2264.000000	7.334156
2263.000000	7.369433
2262.000000	7.446441
2261.000000	7.526138
2260.000000	7.600673
2259.000000	7.677573
2258.000000	7.773833
2257.000000	7.876546
2256.000000	7.977324
2255.000000	8.075842
2254.000000	8.168123
2253.000000	8.282560
2252.000000	8.402589
2251.000000	8.502613
2250.000000	8.612425
2249.000000	8.702555
2248.000000	8.789027
2247.000000	8.875608
2246.000000	8.955950
2245.000000	9.039949
2244.000000	9.113838
2243.000000	9.180736
2242.000000	9.259895
2241.000000	9.314747
2240.000000	9.381645
2239.000000	9.410039
2238.000000	9.444026
2237.000000	9.513935
2236.000000	9.528778
2235.000000	9.557172
2234.000000	9.565668
2233.000000	9.630738
2232.000000	9.656658
2231.000000	9.634287
2230.000000	9.676771
2229.000000	9.690753
2228.000000	9.687419
2227.000000	9.708607
2226.000000	9.709790
2225.000000	9.710327
2224.000000	9.688709
2223.000000	9.698389
2222.000000	9.694947
2221.000000	9.667521
2220.000000	9.663219
2219.000000	9.645043
2218.000000	9.606754
2217.000000	9.608797
2216.000000	9.560614
2215.000000	9.572875
2214.000000	9.531789
2213.000000	9.534693
2212.000000	9.519743
2211.000000	9.495221
2210.000000	9.478443
2209.000000	9.458546
2208.000000	9.423483
2207.000000	9.434023
2206.000000	9.427033
2205.000000	9.424129
2204.000000	9.392185
2203.000000	9.386593
2202.000000	9.401758
2201.000000	9.381430
2200.000000	9.354649
2199.000000	9.340990
2198.000000	9.346153
2197.000000	9.343141
2196.000000	9.324319
2195.000000	9.342173
2194.000000	9.298722
2193.000000	9.298399
2192.000000	9.288827
2191.000000	9.310768
2190.000000	9.295065
2189.000000	9.281621
2188.000000	9.258174
2187.000000	9.259572
2186.000000	9.252366
2185.000000	9.258604
2184.000000	9.222682
2183.000000	9.234190
2182.000000	9.218917
2181.000000	9.196331
2180.000000	9.197084
2179.000000	9.205150
2178.000000	9.196761
2177.000000	9.169658
2176.000000	9.187727
2175.000000	9.163312
2174.000000	9.178585
2173.000000	9.179553
2172.000000	9.174498
2171.000000	9.178692
2170.000000	9.164603
2169.000000	9.168260
2168.000000	9.159978
2167.000000	9.184823
2166.000000	9.173637
2165.000000	9.178370
2164.000000	9.184930
2163.000000	9.203214
2162.000000	9.197837
2161.000000	9.217089
2160.000000	9.244515
2159.000000	9.250538
2158.000000	9.276566
2157.000000	9.281728
2156.000000	9.285493
2155.000000	9.308186
2154.000000	9.331740
2153.000000	9.350455
2152.000000	9.374009
2151.000000	9.397025
2150.000000	9.417998
2149.000000	9.444671
2148.000000	9.464138
2147.000000	9.491672
2146.000000	9.500276
2145.000000	9.524261
2144.000000	9.548245
2143.000000	9.583200
2142.000000	9.623747
2141.000000	9.613422
2140.000000	9.620090
2139.000000	9.631491
2138.000000	9.643322
2137.000000	9.668920
2136.000000	9.672899
2135.000000	9.674190
2134.000000	9.695700
2133.000000	9.711726
2132.000000	9.721083
2131.000000	9.729472
2130.000000	9.715275
2129.000000	9.720222
2128.000000	9.743239
2127.000000	9.730225
2126.000000	9.732483
2125.000000	9.732591
2124.000000	9.745605
2123.000000	9.735065
2122.000000	9.735065
2121.000000	9.736033
2120.000000	9.721728
2119.000000	9.709682
2118.000000	9.713231
2117.000000	9.691291
2116.000000	9.683547
2115.000000	9.665478
2114.000000	9.654507
2113.000000	9.646764
2112.000000	9.624715
2111.000000	9.609765
2110.000000	9.608582
2109.000000	9.586211
2108.000000	9.573735
2107.000000	9.561689
2106.000000	9.542867
2105.000000	9.527272
2104.000000	9.484789
2103.000000	9.461234
2102.000000	9.463278
2101.000000	9.459298
2100.000000	9.444779
2099.000000	9.435314
2098.000000	9.418321
2097.000000	9.384441
2096.000000	9.357446
2095.000000	9.344324
2094.000000	9.333354
2093.000000	9.331525
2092.000000	9.327869
2091.000000	9.304960
2090.000000	9.285923
2089.000000	9.266241
2088.000000	9.253012
2087.000000	9.246451
2086.000000	9.220638
2085.000000	9.207732
2084.000000	9.196223
2083.000000	9.172347
2082.000000	9.167292
2081.000000	9.149868
2080.000000	9.114053
2079.000000	9.095984
2078.000000	9.059739
2077.000000	9.023063
2076.000000	9.011555
2075.000000	8.985957
2074.000000	8.945087
2073.000000	8.907336
2072.000000	8.881846
2071.000000	8.850763
2070.000000	8.820648
2069.000000	8.790425
2068.000000	8.757622
2067.000000	8.716321
2066.000000	8.689756
2065.000000	8.655877
2064.000000	8.613393
2063.000000	8.591452
2062.000000	8.546172
2061.000000	8.516273
2060.000000	8.492503
2059.000000	8.461743
2058.000000	8.447223
2057.000000	8.417969
2056.000000	8.401513
2055.000000	8.406031
2054.000000	8.393662
2053.000000	8.379895
2052.000000	8.382154
2051.000000	8.392694
2050.000000	8.389145
2049.000000	8.388069
2048.000000	8.413129
2047.000000	8.434317
2046.000000	8.452386
2045.000000	8.479489
2044.000000	8.497989
2043.000000	8.536277
2042.000000	8.557035
2041.000000	8.582848
2040.000000	8.610382
2039.000000	8.619846
2038.000000	8.613070
2037.000000	8.630709
2036.000000	8.659211
2035.000000	8.690401
2034.000000	8.697715
2033.000000	8.716429
2032.000000	8.724495
2031.000000	8.721484
2030.000000	8.734068
2029.000000	8.726001
2028.000000	8.749770
2027.000000	8.730733
2026.000000	8.721269
2025.000000	8.722882
2024.000000	8.735466
2023.000000	8.740413
2022.000000	8.740736
2021.000000	8.745791
2020.000000	8.727292
2019.000000	8.707394
2018.000000	8.687927
2017.000000	8.677387
2016.000000	8.668568
2015.000000	8.645659
2014.000000	8.637592
2013.000000	8.619846
2012.000000	8.619954
2011.000000	8.591022
2010.000000	8.569942
2009.000000	8.542623
2008.000000	8.514014
2007.000000	8.505195
2006.000000	8.481210
2005.000000	8.466906
2004.000000	8.430338
2003.000000	8.407321
2002.000000	8.373442
2001.000000	8.329453
2000.000000	8.290088
1999.000000	8.268363
1998.000000	8.251692
1997.000000	8.204153
1996.000000	8.175759
1995.000000	8.138653
1994.000000	8.096815
1993.000000	8.060140
1992.000000	8.016688
1991.000000	7.982486
1990.000000	7.964095
1989.000000	7.919245
1988.000000	7.867404
1987.000000	7.837074
1986.000000	7.799216
1985.000000	7.750709
1984.000000	7.727800
1983.000000	7.681445
1982.000000	7.624657
1981.000000	7.610137
1980.000000	7.585615
1979.000000	7.529903
1978.000000	7.493657
1977.000000	7.467092
1976.000000	7.443322
1975.000000	7.385029
1974.000000	7.350397
1973.000000	7.324154
1972.000000	7.281778
1971.000000	7.258116
1970.000000	7.190788
1969.000000	7.172611
1968.000000	7.146476
1967.000000	7.128622
1966.000000	7.079793
1965.000000	7.045376
1964.000000	7.010851
1963.000000	7.018488
1962.000000	6.969228
1961.000000	6.939328
1960.000000	6.935779
1959.000000	6.888456
1958.000000	6.851350
1957.000000	6.821558
1956.000000	6.788001
1955.000000	6.769717
1954.000000	6.752509
1953.000000	6.727664
1952.000000	6.709702
1951.000000	6.660336
1950.000000	6.647967
1949.000000	6.626887
1948.000000	6.611291
1947.000000	6.598708
1946.000000	6.562677
1945.000000	6.573755
1944.000000	6.556117
1943.000000	6.513203
1942.000000	6.530734
1941.000000	6.515569
1940.000000	6.500081
1939.000000	6.492445
1938.000000	6.486530
1937.000000	6.489864
1936.000000	6.506535
1935.000000	6.498361
1934.000000	6.485347
1933.000000	6.517720
1932.000000	6.502663
1931.000000	6.533315
1930.000000	6.554611
1929.000000	6.548373
1928.000000	6.569453
1927.000000	6.609140
1926.000000	6.633232
1925.000000	6.682814
1924.000000	6.708627
1923.000000	6.719705
1922.000000	6.771761
1921.000000	6.819944
1920.000000	6.862105
1919.000000	6.932445
1918.000000	6.979338
1917.000000	7.024295
1916.000000	7.100873
1915.000000	7.139915
1914.000000	7.218536
1913.000000	7.283176
1912.000000	7.376962
1911.000000	7.441602
1910.000000	7.519255
1909.000000	7.596371
1908.000000	7.681875
1907.000000	7.769854
1906.000000	7.887947
1905.000000	8.011741
1904.000000	8.145429
1903.000000	8.253843
1902.000000	8.389252
1901.000000	8.533373
1900.000000	8.663405
1899.000000	8.836888
1898.000000	9.009619
1897.000000	9.184823
1896.000000	9.338301
1895.000000	9.536306
1894.000000	9.700540
1893.000000	9.904031
1892.000000	10.146563
1891.000000	10.421469
1890.000000	10.671207
1889.000000	10.965580
1888.000000	11.236829
1887.000000	11.527008
1886.000000	11.826758
1885.000000	12.161356
1884.000000	12.479283
1883.000000	12.852600
1882.000000	13.247212
1881.000000	13.578906
1880.000000	13.964699
1879.000000	14.298222
1878.000000	14.654653
1877.000000	15.018182
1876.000000	15.364288
1875.000000	15.726097
1874.000000	16.077796
1873.000000	16.444767
1872.000000	16.807329
1871.000000	17.124180
1870.000000	17.442968
1869.000000	17.743686
1868.000000	18.027734
1867.000000	18.268761
1866.000000	18.485158
1865.000000	18.676172
1864.000000	18.860841
1863.000000	19.019482
1862.000000	19.205979
1861.000000	19.377956
1860.000000	19.555957
1859.000000	19.704380
1858.000000	19.864097
1857.000000	20.000474
1856.000000	20.111361
1855.000000	20.194822
1854.000000	20.292266
1853.000000	20.382395
1852.000000	20.448325
1851.000000	20.479193
1850.000000	20.537917
1849.000000	20.601373
1848.000000	20.646976
1847.000000	20.705270
1846.000000	20.723769
1845.000000	20.695267
1844.000000	20.714089
1843.000000	20.713981
1842.000000	20.733771
1841.000000	20.753884
1840.000000	20.758724
1839.000000	20.764531
1838.000000	20.767220
1837.000000	20.758401
1836.000000	20.746462
1835.000000	20.735384
1834.000000	20.706022
1833.000000	20.672143
1832.000000	20.622776
1831.000000	20.602664
1830.000000	20.587606
1829.000000	20.565558
1828.000000	20.531249
1827.000000	20.488765
1826.000000	20.446282
1825.000000	20.417350
1824.000000	20.370134
1823.000000	20.344321
1822.000000	20.332813
1821.000000	20.317648
1820.000000	20.313238
1819.000000	20.292158
1818.000000	20.258924
1817.000000	20.240317
1816.000000	20.212031
1815.000000	20.186111
1814.000000	20.167611
1813.000000	20.153630
1812.000000	20.137819
1811.000000	20.117599
1810.000000	20.092862
1809.000000	20.069200
1808.000000	20.035644
1807.000000	19.980361
1806.000000	19.949171
1805.000000	19.919271
1804.000000	19.872163
1803.000000	19.843984
1802.000000	19.824625
1801.000000	19.796338
1800.000000	19.765040
1799.000000	19.712984
1798.000000	19.671146
1797.000000	19.639418
1796.000000	19.605431
1795.000000	19.578866
1794.000000	19.541975
1793.000000	19.496372
1792.000000	19.464429
1791.000000	19.432808
1790.000000	19.405167
1789.000000	19.380430
1788.000000	19.346336
1787.000000	19.310736
1786.000000	19.273092
1785.000000	19.259648
1784.000000	19.232114
1783.000000	19.190921
1782.000000	19.161344
1781.000000	19.110902
1780.000000	19.069709
1779.000000	19.044649
1778.000000	19.016040
1777.000000	18.976460
1776.000000	18.929782
1775.000000	18.871274
1774.000000	18.829973
1773.000000	18.798245
1772.000000	18.744683
1771.000000	18.680797
1770.000000	18.638206
1769.000000	18.604542
1768.000000	18.542591
1767.000000	18.489675
1766.000000	18.449988
1765.000000	18.408903
1764.000000	18.379756
1763.000000	18.355556
1762.000000	18.349426
1761.000000	18.354803
1760.000000	18.367817
1759.000000	18.403848
1758.000000	18.445148
1757.000000	18.504948
1756.000000	18.556465
1755.000000	18.610350
1754.000000	18.661330
1753.000000	18.702092
1752.000000	18.729196
1751.000000	18.765011
1750.000000	18.763720
1749.000000	18.774906
1748.000000	18.785769
1747.000000	18.785876
1746.000000	18.766409
1745.000000	18.730702
1744.000000	18.695747
1743.000000	18.641648
1742.000000	18.565285
1741.000000	18.484190
1740.000000	18.391049
1739.000000	18.302425
1738.000000	18.208531
1737.000000	18.092374
1736.000000	17.991596
1735.000000	17.928785
1734.000000	17.835967
1733.000000	17.773694
1732.000000	17.753581
1731.000000	17.758636
1730.000000	17.766165
1729.000000	17.802626
1728.000000	17.839731
1727.000000	17.880817
1726.000000	17.941584
1725.000000	17.989123
1724.000000	18.046986
1723.000000	18.110980
1722.000000	18.169919
1721.000000	18.215092
1720.000000	18.267148
1719.000000	18.332540
1718.000000	18.395996
1717.000000	18.454505
1716.000000	18.528824
1715.000000	18.604864
1714.000000	18.691337
1713.000000	18.761462
1712.000000	18.824918
1711.000000	18.908810
1710.000000	18.969254
1709.000000	19.008834
1708.000000	19.045940
1707.000000	19.054114
1706.000000	19.055942
1705.000000	19.063794
1704.000000	19.026365
1703.000000	18.971083
1702.000000	18.949465
1701.000000	18.900420
1700.000000	18.815884
1699.000000	18.737155
1698.000000	18.662943
1697.000000	18.560230
1696.000000	18.485588
1695.000000	18.415894
1694.000000	18.382552
1693.000000	18.386532
1692.000000	18.396211
1691.000000	18.452139
1690.000000	18.529147
1689.000000	18.606047
1688.000000	18.680474
1687.000000	18.768883
1686.000000	18.850408
1685.000000	18.926233
1684.000000	19.004317
1683.000000	19.101760
1682.000000	19.198773
1681.000000	19.369890
1680.000000	19.588438
1679.000000	19.857428
1678.000000	20.127387
1677.000000	20.423050
1676.000000	20.709679
1675.000000	21.003299
1674.000000	21.255404
1673.000000	21.494172
1672.000000	21.706804
1671.000000	21.899432
1670.000000	22.042800
1669.000000	22.218327
1668.000000	22.334377
1667.000000	22.430099
1666.000000	22.534426
1665.000000	22.611111
1664.000000	22.688119
1663.000000	22.755448
1662.000000	22.826755
1661.000000	22.866120
1660.000000	22.936029
1659.000000	22.967220
1658.000000	22.996689
1657.000000	23.014651
1656.000000	23.013467
1655.000000	23.041862
1654.000000	23.014435
1653.000000	23.038312
1652.000000	23.056811
1651.000000	23.017232
1650.000000	23.018092
1649.000000	22.966037
1648.000000	22.951194
1647.000000	22.911507
1646.000000	22.895159
1645.000000	22.847405
1644.000000	22.817506
1643.000000	22.773194
1642.000000	22.741251
1641.000000	22.710383
1640.000000	22.655316
1639.000000	22.621974
1638.000000	22.555291
1637.000000	22.522380
1636.000000	22.472045
1635.000000	22.408158
1634.000000	22.385250
1633.000000	22.302649
1632.000000	22.267909
1631.000000	22.212627
1630.000000	22.143255
1629.000000	22.078508
1628.000000	22.032475
1627.000000	21.970740
1626.000000	21.892011
1625.000000	21.824898
1624.000000	21.757247
1623.000000	21.704976
1622.000000	21.636142
1621.000000	21.566663
1620.000000	21.527083
1619.000000	21.456528
1618.000000	21.412754
1617.000000	21.332950
1616.000000	21.277130
1615.000000	21.221202
1614.000000	21.146022
1613.000000	21.086868
1612.000000	21.040298
1611.000000	20.978562
1610.000000	20.923387
1609.000000	20.854553
1608.000000	20.819599
1607.000000	20.742913
1606.000000	20.680640
1605.000000	20.612559
1604.000000	20.551038
1603.000000	20.486184
1602.000000	20.435957
1601.000000	20.373468
1600.000000	20.308936
1599.000000	20.225475
1598.000000	20.150941
1597.000000	20.097809
1596.000000	20.036182
1595.000000	19.960141
1594.000000	19.904214
1593.000000	19.847856
1592.000000	19.777409
1591.000000	19.737937
1590.000000	19.676416
1589.000000	19.627910
1588.000000	19.565744
1587.000000	19.506267
1586.000000	19.458514
1585.000000	19.400112
1584.000000	19.370965
1583.000000	19.308800
1582.000000	19.270511
1581.000000	19.208130
1580.000000	19.168443
1579.000000	19.118646
1578.000000	19.081217
1577.000000	19.035507
1576.000000	18.985387
1575.000000	18.945163
1574.000000	18.918059
1573.000000	18.874715
1572.000000	18.862992
1571.000000	18.832124
1570.000000	18.798675
1569.000000	18.765764
1568.000000	18.736187
1567.000000	18.741027
1566.000000	18.712310
1565.000000	18.679506
1564.000000	18.657888
1563.000000	18.629602
1562.000000	18.612823
1561.000000	18.599164
1560.000000	18.579052
1559.000000	18.526566
1558.000000	18.486341
1557.000000	18.454398
1556.000000	18.416216
1555.000000	18.379648
1554.000000	18.350609
1553.000000	18.302748
1552.000000	18.277473
1551.000000	18.227676
1550.000000	18.177556
1549.000000	18.123672
1548.000000	18.064517
1547.000000	18.005256
1546.000000	17.969978
1545.000000	17.929861
1544.000000	17.882000
1543.000000	17.838118
1542.000000	17.803701
1541.000000	17.758636
1540.000000	17.722821
1539.000000	17.686791
1538.000000	17.628712
1537.000000	17.595908
1536.000000	17.560308
1535.000000	17.517395
1534.000000	17.465446
1533.000000	17.440602
1532.000000	17.399947
1531.000000	17.333049
1530.000000	17.273787
1529.000000	17.226141
1528.000000	17.182259
1527.000000	17.136119
1526.000000	17.081697
1525.000000	17.022328
1524.000000	16.964034
1523.000000	16.912838
1522.000000	16.865300
1521.000000	16.807221
1520.000000	16.746024
1519.000000	16.691817
1518.000000	16.629328
1517.000000	16.567485
1516.000000	16.499942
1515.000000	16.441648
1514.000000	16.377116
1513.000000	16.313122
1512.000000	16.279028
1511.000000	16.213958
1510.000000	16.132325
1509.000000	16.066288
1508.000000	15.993797
1507.000000	15.935073
1506.000000	15.877317
1505.000000	15.811925
1504.000000	15.748898
1503.000000	15.678344
1502.000000	15.619727
1501.000000	15.551969
1500.000000	15.488297
1499.000000	15.441081
1498.000000	15.391284
1497.000000	15.331592
1496.000000	15.280935
1495.000000	15.228987
1494.000000	15.164885
1493.000000	15.116701
1492.000000	15.086156
1491.000000	15.024420
1490.000000	14.973118
1489.000000	14.943756
1488.000000	14.897938
1487.000000	14.847926
1486.000000	14.819854
1485.000000	14.787911
1484.000000	14.742846
1483.000000	14.701438
1482.000000	14.666268
1481.000000	14.632174
1480.000000	14.605286
1479.000000	14.578505
1478.000000	14.559791
1477.000000	14.542582
1476.000000	14.507735
1475.000000	14.486870
1474.000000	14.472673
1473.000000	14.461165
1472.000000	14.457293
1471.000000	14.435137
1470.000000	14.429759
1469.000000	14.426102
1468.000000	14.420725
1467.000000	14.419326
1466.000000	14.413841
1465.000000	14.410184
1464.000000	14.394374
1463.000000	14.418896
1462.000000	14.418574
1461.000000	14.446968
1460.000000	14.454927
1459.000000	14.476222
1458.000000	14.508273
1457.000000	14.534946
1456.000000	14.572912
1455.000000	14.598725
1454.000000	14.641639
1453.000000	14.683477
1452.000000	14.720153
1451.000000	14.774144
1450.000000	14.829211
1449.000000	14.854702
1448.000000	14.900627
1447.000000	14.935474
1446.000000	15.003878
1445.000000	15.075723
1444.000000	15.124768
1443.000000	15.170262
1442.000000	15.236838
1441.000000	15.318686
1440.000000	15.368698
1439.000000	15.432907
1438.000000	15.519165
1437.000000	15.593699
1436.000000	15.672966
1435.000000	15.758793
1434.000000	15.855699
1433.000000	15.951313
1432.000000	16.051123
1431.000000	16.142650
1430.000000	16.253323
1429.000000	16.366253
1428.000000	16.491338
1427.000000	16.602440
1426.000000	16.733978
1425.000000	16.895737
1424.000000	17.025231
1423.000000	17.191939
1422.000000	17.347461
1421.000000	17.523418
1420.000000	17.695503
1419.000000	17.915664
1418.000000	18.120122
1417.000000	18.307050
1416.000000	18.490966
1415.000000	18.740919
1414.000000	19.011845
1413.000000	19.260939
1412.000000	19.513473
1411.000000	19.736646
1410.000000	20.025319
1409.000000	20.364434
1408.000000	20.681931
1407.000000	21.026638
1406.000000	21.370593
1405.000000	21.702933
1404.000000	22.095394
1403.000000	22.452040
1402.000000	22.819334
1401.000000	23.197061
1400.000000	23.655452
1399.000000	24.089752
1398.000000	24.472533
1397.000000	24.814337
1396.000000	25.244872
1395.000000	25.732733
1394.000000	26.210700
1393.000000	26.590577
1392.000000	27.011970
1391.000000	27.520482
1390.000000	28.026519
1389.000000	28.448558
1388.000000	28.995250
1387.000000	29.589912
1386.000000	30.124343
1385.000000	30.671681
1384.000000	31.192668
1383.000000	31.781307
1382.000000	32.313372
1381.000000	32.856623
1380.000000	33.298344
1379.000000	33.641223
1378.000000	33.953558
1377.000000	34.193724
1376.000000	34.484762
1375.000000	34.721702
1374.000000	34.963697
1373.000000	35.230213
1372.000000	35.458656
1371.000000	35.764967
1370.000000	36.048585
1369.000000	36.307035
1368.000000	36.562151
1367.000000	36.804899
1366.000000	37.031943
1365.000000	37.193488
1364.000000	37.428062
1363.000000	37.584551
1362.000000	37.738245
1361.000000	37.906243
1360.000000	38.036275
1359.000000	38.116187
1358.000000	38.237399
1357.000000	38.345490
1356.000000	38.494451
1355.000000	38.644273
1354.000000	38.868306
1353.000000	39.094813
1352.000000	39.312178
1351.000000	39.630750
1350.000000	39.960293
1349.000000	40.224873
1348.000000	40.530539
1347.000000	40.842121
1346.000000	41.116596
1345.000000	41.374079
1344.000000	41.648769
1343.000000	41.896572
1342.000000	42.173306
1341.000000	42.425196
1340.000000	42.677730
1339.000000	42.936396
1338.000000	43.184413
1337.000000	43.443294
1336.000000	43.705401
1335.000000	43.956107
1334.000000	44.187884
1333.000000	44.416112
1332.000000	44.669399
1331.000000	44.914513
1330.000000	45.141342
1329.000000	45.371829
1328.000000	45.582418
1327.000000	45.792684
1326.000000	46.003919
1325.000000	46.197192
1324.000000	46.391325
1323.000000	46.583522
1322.000000	46.779699
1321.000000	46.960281
1320.000000	47.130645
1319.000000	47.300472
1318.000000	47.449863
1317.000000	47.617646
1316.000000	47.763703
1315.000000	47.908470
1314.000000	48.062593
1313.000000	48.207682
1312.000000	48.323194
1311.000000	48.450000
1310.000000	48.565619
1309.000000	48.691349
1308.000000	48.797611
1307.000000	48.885052
1306.000000	48.985292
1305.000000	49.109408
1304.000000	49.177381
1303.000000	49.254712
1302.000000	49.320105
1301.000000	49.386895
1300.000000	49.444113
1299.000000	49.501762
1298.000000	49.549300
1297.000000	49.597807
1296.000000	49.639860
1295.000000	49.680730
1294.000000	49.715040
1293.000000	49.736443
1292.000000	49.764191
1291.000000	49.796135
1290.000000	49.838618
1289.000000	49.843673
1288.000000	49.817215
1287.000000	49.808718
1286.000000	49.813666
1285.000000	49.810547
1284.000000	49.802265
1283.000000	49.772688
1282.000000	49.755910
1281.000000	49.719019
1280.000000	49.691485
1279.000000	49.675675
1278.000000	49.660080
1277.000000	49.639215
1276.000000	49.613725
1275.000000	49.588772
1274.000000	49.558765
1273.000000	49.544675
1272.000000	49.534350
1271.000000	49.497675
1270.000000	49.472722
1269.000000	49.461537
1268.000000	49.438413
1267.000000	49.419268
1266.000000	49.411955
1265.000000	49.396790
1264.000000	49.366030
1263.000000	49.341400
1262.000000	49.307413
1261.000000	49.270953
1260.000000	49.245248
1259.000000	49.214272
1258.000000	49.165658
1257.000000	49.129090
1256.000000	49.089726
1255.000000	49.044123
1254.000000	49.013363
1253.000000	48.975827
1252.000000	48.924309
1251.000000	48.880320
1250.000000	48.806108
1249.000000	48.739210
1248.000000	48.681884
1247.000000	48.596272
1246.000000	48.519587
1245.000000	48.460647
1244.000000	48.372669
1243.000000	48.276516
1242.000000	48.194023
1241.000000	48.121425
1240.000000	48.040007
1239.000000	47.947081
1238.000000	47.858457
1237.000000	47.774028
1236.000000	47.693901
1235.000000	47.601298
1234.000000	47.497724
1233.000000	47.412865
1232.000000	47.328973
1231.000000	47.235725
1230.000000	47.127419
1229.000000	47.020726
1228.000000	46.911129
1227.000000	46.793036
1226.000000	46.684730
1225.000000	46.579328
1224.000000	46.454351
1223.000000	46.341958
1222.000000	46.229135
1221.000000	46.104588
1220.000000	45.989076
1219.000000	45.864637
1218.000000	45.753212
1217.000000	45.635011
1216.000000	45.518639
1215.000000	45.421841
1214.000000	45.309448
1213.000000	45.188881
1212.000000	45.083586
1211.000000	44.976571
1210.000000	44.873965
1209.000000	44.761465
1208.000000	44.662623
1207.000000	44.564105
1206.000000	44.448270
1205.000000	44.358033
1204.000000	44.295114
1203.000000	44.197241
1202.000000	44.119373
1201.000000	44.068823
1200.000000	44.013002
1199.000000	43.947288
1198.000000	43.887380
1197.000000	43.812846
1196.000000	43.710671
1195.000000	43.605914
1194.000000	43.475344
1193.000000	43.317134
1192.000000	43.146339
1191.000000	42.954680
1190.000000	42.744091
1189.000000	42.523714
1188.000000	42.305812
1187.000000	42.144052
1186.000000	42.018107
1185.000000	41.950026
1184.000000	41.953360
1183.000000	42.017677
1182.000000	42.156098
1181.000000	42.349048
1180.000000	42.567703
1179.000000	42.819593
1178.000000	43.087938
1177.000000	43.363059
1176.000000	43.586877
1175.000000	43.796175
1174.000000	44.003000
1173.000000	44.194337
1172.000000	44.359108
1171.000000	44.545283
1170.000000	44.703924
1169.000000	44.888485
1168.000000	45.098644
1167.000000	45.277397
1166.000000	45.474865
1165.000000	45.703092
1164.000000	45.912929
1163.000000	46.138898
1162.000000	46.368631
1161.000000	46.607937
1160.000000	46.827776
1159.000000	47.054175
1158.000000	47.286060
1157.000000	47.513319
1156.000000	47.720682
1155.000000	47.927722
1154.000000	48.125404
1153.000000	48.304050
1152.000000	48.479039
1151.000000	48.621117
1150.000000	48.745878
1149.000000	48.876770
1148.000000	49.013471
1147.000000	49.140168
1146.000000	49.297411
1145.000000	49.489286
1144.000000	49.673094
1143.000000	49.879166
1142.000000	50.106425
1141.000000	50.357777
1140.000000	50.612140
1139.000000	50.893284
1138.000000	51.200026
1137.000000	51.482353
1136.000000	51.796838
1135.000000	52.110356
1134.000000	52.431187
1133.000000	52.697273
1132.000000	52.951851
1131.000000	53.184274
1130.000000	53.404865
1129.000000	53.571250
1128.000000	53.716231
1127.000000	53.858632
1126.000000	53.963173
1125.000000	54.047925
1124.000000	54.111704
1123.000000	54.178710
1122.000000	54.217106
1121.000000	54.229475
1120.000000	54.260881
1119.000000	54.266151
1118.000000	54.266366
1117.000000	54.270130
1116.000000	54.246361
1115.000000	54.249910
1114.000000	54.228184
1113.000000	54.206028
1112.000000	54.179033
1111.000000	54.172042
1110.000000	54.157952
1109.000000	54.130526
1108.000000	54.086967
1107.000000	54.072447
1106.000000	54.059864
1105.000000	54.029211
1104.000000	53.995332
1103.000000	53.977693
1102.000000	53.939834
1101.000000	53.935425
1100.000000	53.898642
1099.000000	53.860460
1098.000000	53.854652
1097.000000	53.808835
1096.000000	53.783882
1095.000000	53.753767
1094.000000	53.690526
1093.000000	53.683535
1092.000000	53.645569
1091.000000	53.584586
1090.000000	53.530487
1089.000000	53.504244
1088.000000	53.444552
1087.000000	53.414222
1086.000000	53.339043
1085.000000	53.271069
1084.000000	53.254828
1083.000000	53.190942
1082.000000	53.131895
1081.000000	53.067041
1080.000000	53.011974
1079.000000	52.946474
1078.000000	52.885491
1077.000000	52.837630
1076.000000	52.771377
1075.000000	52.723839
1074.000000	52.653929
1073.000000	52.586063
1072.000000	52.524005
1071.000000	52.456354
1070.000000	52.390101
1069.000000	52.314384
1068.000000	52.258456
1067.000000	52.182416
1066.000000	52.126596
1065.000000	52.040231
1064.000000	51.970106
1063.000000	51.906220
1062.000000	51.832653
1061.000000	51.756076
1060.000000	51.691436
1059.000000	51.616472
1058.000000	51.540754
1057.000000	51.461918
1056.000000	51.378994
1055.000000	51.297576
1054.000000	51.204435
1053.000000	51.140011
1052.000000	51.066983
1051.000000	50.966743
1050.000000	50.909847
1049.000000	50.844240
1048.000000	50.759703
1047.000000	50.682373
1046.000000	50.609774
1045.000000	50.532874
1044.000000	50.449090
1043.000000	50.379503
1042.000000	50.306474
1041.000000	50.224841
1040.000000	50.138799
1039.000000	50.062221
1038.000000	49.966606
1037.000000	49.914981
1036.000000	49.821840
1035.000000	49.734292
1034.000000	49.651476
1033.000000	49.561561
1032.000000	49.476487
1031.000000	49.394101
1030.000000	49.311715
1029.000000	49.223737
1028.000000	49.137802
1027.000000	49.061977
1026.000000	48.973999
1025.000000	48.857626
1024.000000	48.775671
1023.000000	48.693823
1022.000000	48.592185
1021.000000	48.513026
1020.000000	48.429134
1019.000000	48.334057
1018.000000	48.256727
1017.000000	48.163693
1016.000000	48.080877
1015.000000	48.009462
1014.000000	47.933529
1013.000000	47.857704
1012.000000	47.780481
1011.000000	47.719929
1010.000000	47.662280
1009.000000	47.597426
1008.000000	47.527409
1007.000000	47.470191
1006.000000	47.407380
1005.000000	47.368768
1004.000000	47.310582
1003.000000	47.242178
1002.000000	47.186250
1001.000000	47.159792
1000.000000	47.110533
999.000000	47.056111
998.000000	46.993838
997.000000	46.967165
996.000000	46.913603
995.000000	46.858966
994.000000	46.820139
993.000000	46.781850
992.000000	46.733989
991.000000	46.697529
990.000000	46.661176
989.000000	46.616326
988.000000	46.571799
987.000000	46.546847
986.000000	46.500707
985.000000	46.473065
984.000000	46.458761
983.000000	46.431657
982.000000	46.404554
981.000000	46.383581
980.000000	46.364114
979.000000	46.346260
978.000000	46.321846
977.000000	46.290333
976.000000	46.270005
975.000000	46.276136
974.000000	46.268177
973.000000	46.243332
972.000000	46.234835
971.000000	46.233545
970.000000	46.219993
969.000000	46.204290
968.000000	46.197192
967.000000	46.199665
966.000000	46.199558
965.000000	46.190631
964.000000	46.188480
963.000000	46.205151
962.000000	46.210206
961.000000	46.204290
960.000000	46.219455
959.000000	46.246343
958.000000	46.260540
957.000000	46.262476
956.000000	46.270328
955.000000	46.297001
954.000000	46.318404
953.000000	46.340452
952.000000	46.379817
951.000000	46.399069
950.000000	46.422085
949.000000	46.452630
948.000000	46.472850
947.000000	46.484358
946.000000	46.497157
945.000000	46.519098
944.000000	46.539103
943.000000	46.551257
942.000000	46.566422
941.000000	46.564486
940.000000	46.553730
939.000000	46.560076
938.000000	46.563625
937.000000	46.555236
936.000000	46.567820
935.000000	46.585566
934.000000	46.599548
933.000000	46.616111
932.000000	46.631491
931.000000	46.644398
930.000000	46.632352
929.000000	46.625468
928.000000	46.620843
927.000000	46.615358
926.000000	46.617402
925.000000	46.614928
924.000000	46.615788
923.000000	46.614068
922.000000	46.605248
921.000000	46.605248
920.000000	46.592987
919.000000	46.583307
918.000000	46.567067
917.000000	46.550826
916.000000	46.538350
915.000000	46.532542
914.000000	46.542867
913.000000	46.535984
912.000000	46.510171
911.000000	46.496512
910.000000	46.488983
909.000000	46.468010
908.000000	46.454351
907.000000	46.463923
906.000000	46.464461
905.000000	46.450049
904.000000	46.429614
903.000000	46.424344
902.000000	46.408211
901.000000	46.380677
900.000000	46.362931
899.000000	46.356155
898.000000	46.353897
897.000000	46.332171
896.000000	46.312596
895.000000	46.338732
894.000000	46.387023
893.000000	46.422838
892.000000	46.450157
891.000000	46.490597
890.000000	46.499093
889.000000	46.510924
888.000000	46.548245
887.000000	46.596752
886.000000	46.632782
885.000000	46.656121
884.000000	46.683870
883.000000	46.710865
882.000000	46.770665
881.000000	46.783356
880.000000	46.821107
879.000000	46.839176
878.000000	46.877143
877.000000	46.929306
876.000000	46.928553
875.000000	46.965013
874.000000	46.979533
873.000000	46.986739
872.000000	47.029760
871.000000	47.056971
870.000000	47.091281
869.000000	47.108597
868.000000	47.132366
867.000000	47.138174
866.000000	47.142476
865.000000	47.171300
864.000000	47.182163
863.000000	47.229272
862.000000	47.240672
861.000000	47.274982
860.000000	47.294664
859.000000	47.344784
858.000000	47.345967
857.000000	47.244700
856.000000	47.343000
855.000000	47.450200
854.000000	48.312400
853.000000	47.797300
852.000000	47.670200
851.000000	47.149700
850.000000	48.304100
849.000000	47.381100
848.000000	48.024700
847.000000	47.556900
846.000000	47.591800
845.000000	47.967100
844.000000	47.648200
843.000000	47.433500
842.000000	47.809400
841.000000	47.698700
840.000000	47.956600
839.000000	47.559200
838.000000	47.390900
837.000000	47.795700
836.000000	48.088100
835.000000	48.015500
834.000000	48.171700
833.000000	48.130400
832.000000	48.227600
831.000000	47.941200
830.000000	47.819700
829.000000	47.617000
828.000000	47.852700
827.000000	47.892200
826.000000	47.839600
825.000000	47.871600
824.000000	47.846900
823.000000	47.568600
822.000000	47.771800
821.000000	47.525300
820.000000	47.508600
819.000000	47.663700
818.000000	47.564500
817.000000	47.324000
816.000000	47.495300
815.000000	47.291500
814.000000	47.479800
813.000000	47.090800
812.000000	47.184300
811.000000	47.144000
810.000000	47.207800
809.000000	47.237600
808.000000	46.910000
807.000000	47.154100
806.000000	47.004400
805.000000	46.710500
804.000000	46.577100
803.000000	46.657600
802.000000	46.773800
801.000000	46.599100
800.000000	46.317200
799.000000	46.388800
798.000000	46.260700
797.000000	45.866100
796.000000	46.247700
795.000000	46.083400
794.000000	46.052200
793.000000	45.977100
792.000000	45.887600
791.000000	45.920500
790.000000	45.792700
789.000000	45.613000
788.000000	45.571700
787.000000	45.545200
786.000000	45.428100
785.000000	45.213600
784.000000	45.206400
783.000000	45.043700
782.000000	44.969400
781.000000	44.812600
780.000000	44.708000
779.000000	44.721200
778.000000	44.519300
777.000000	44.252500
776.000000	44.181700
775.000000	44.125000
774.000000	43.967700
773.000000	44.080600
772.000000	43.929000
771.000000	43.642900
770.000000	43.653900
769.000000	43.618200
768.000000	43.393000
767.000000	43.424800
766.000000	43.298600
765.000000	43.236000
764.000000	42.963900
763.000000	42.778400
762.000000	42.847100
761.000000	42.648300
760.000000	42.478300
759.000000	42.229100
758.000000	42.145400
757.000000	42.082100
756.000000	41.987900
755.000000	41.876200
754.000000	41.667500
753.000000	41.610600
752.000000	41.543700
751.000000	41.264000
750.000000	41.126000
749.000000	41.133200
748.000000	41.025500
747.000000	40.778500
746.000000	40.751100
745.000000	40.541900
744.000000	40.370900
743.000000	40.168000
742.000000	39.959300
741.000000	39.736800
740.000000	39.692200
739.000000	39.609700
738.000000	39.400800
737.000000	39.160400
736.000000	38.994800
735.000000	38.863800
734.000000	38.826300
733.000000	38.608400
732.000000	38.559100
731.000000	38.306300
730.000000	38.239600
729.000000	37.986500
728.000000	37.822800
727.000000	37.621800
726.000000	37.527900
725.000000	37.145400
724.000000	36.917500
723.000000	36.914700
722.000000	36.646300
721.000000	36.487700
720.000000	36.288400
719.000000	36.045800
718.000000	35.868700
717.000000	35.682100
716.000000	35.440400
715.000000	35.284400
714.000000	35.180100
713.000000	35.026200
712.000000	34.827800
711.000000	34.617000
710.000000	34.294700
709.000000	34.119700
708.000000	33.918900
707.000000	33.680600
706.000000	33.441300
705.000000	33.211300
704.000000	33.045700
703.000000	32.819200
702.000000	32.561600
701.000000	32.354900
700.000000	32.225100
699.000000	32.011200
698.000000	31.843400
697.000000	31.636600
696.000000	31.433900
695.000000	31.220500
694.000000	31.046100
693.000000	30.808000
692.000000	30.584900
691.000000	30.414900
690.000000	30.194500
689.000000	29.952500
688.000000	29.783600
687.000000	29.586200
686.000000	29.380300
685.000000	29.191200
684.000000	29.030100
683.000000	28.862300
682.000000	28.711800
681.000000	28.482200
680.000000	28.292200
679.000000	28.100700
678.000000	27.934600
677.000000	27.778100
676.000000	27.633600
675.000000	27.485000
674.000000	27.329500
673.000000	27.156900
672.000000	27.006500
671.000000	26.824100
670.000000	26.627800
669.000000	26.491000
668.000000	26.394800
667.000000	26.238200
666.000000	26.106000
665.000000	26.022800
664.000000	25.890400
663.000000	25.764900
662.000000	25.643100
661.000000	25.536900
660.000000	25.407200
659.000000	25.284800
658.000000	25.186400
657.000000	25.073500
656.000000	24.967100
655.000000	24.873600
654.000000	24.769600
653.000000	24.674400
652.000000	24.598700
651.000000	24.505200
650.000000	24.419300
649.000000	24.338900
648.000000	24.252000
647.000000	24.175100
646.000000	24.129900
645.000000	24.067600
644.000000	23.980100
643.000000	23.930500
642.000000	23.868500
641.000000	23.818200
640.000000	23.767500
639.000000	23.745300
638.000000	23.691200
637.000000	23.650000
636.000000	23.640000
635.000000	23.590800
634.000000	23.570900
633.000000	23.549600
632.000000	23.520800
631.000000	23.492700
630.000000	23.487400
629.000000	23.510200
628.000000	23.507800
627.000000	23.487100
626.000000	23.491600
625.000000	23.525900
624.000000	23.519800
623.000000	23.550300
622.000000	23.573700
621.000000	23.575500
620.000000	23.585800
619.000000	23.623700
618.000000	23.628000
617.000000	23.670200
616.000000	23.745400
615.000000	23.773500
614.000000	23.825600
613.000000	23.926900
612.000000	23.967300
611.000000	23.986600
610.000000	24.082500
609.000000	24.141900
608.000000	24.180000
607.000000	24.246400
606.000000	24.309100
605.000000	24.362500
604.000000	24.430000
603.000000	24.515900
602.000000	24.571000
601.000000	24.632200
600.000000	24.694300
599.000000	24.761300
598.000000	24.842600
597.000000	24.893200
596.000000	24.959300
595.000000	25.003400
594.000000	25.087000
593.000000	25.130600
592.000000	25.166300
591.000000	25.217900
590.000000	25.237800
589.000000	25.300400
588.000000	25.339700
587.000000	25.371300
586.000000	25.381800
585.000000	25.381000
584.000000	25.388000
583.000000	25.398900
582.000000	25.436200
581.000000	25.410800
580.000000	25.350800
579.000000	25.362700
578.000000	25.334500
577.000000	25.298600
576.000000	25.250100
575.000000	25.236600
574.000000	25.183500
573.000000	25.102300
572.000000	25.034600
571.000000	24.982500
570.000000	24.897900
569.000000	24.793100
568.000000	24.702900
567.000000	24.609300
566.000000	24.505900
565.000000	24.356000
564.000000	24.216300
563.000000	24.133500
562.000000	23.986600
561.000000	23.859100
560.000000	23.712600
559.000000	23.516000
558.000000	23.343500
557.000000	23.148000
556.000000	22.976600
555.000000	22.802200
554.000000	22.599600
553.000000	22.399400
552.000000	22.223600
551.000000	21.998600
550.000000	21.770700
549.000000	21.545500
548.000000	21.306200
547.000000	21.077500
546.000000	20.829000
545.000000	20.550200
544.000000	20.295800
543.000000	20.041500
542.000000	19.770800
541.000000	19.489500
540.000000	19.218600
539.000000	18.917400
538.000000	18.650600
537.000000	18.363700
536.000000	18.091100
535.000000	17.817800
534.000000	17.518500
533.000000	17.236800
532.000000	16.946200
531.000000	16.649100
530.000000	16.359400
529.000000	16.067000
528.000000	15.792300
527.000000	15.515700
526.000000	15.230900
525.000000	14.947200
524.000000	14.666300
523.000000	14.415600
522.000000	14.135200
521.000000	13.881900
520.000000	13.615900
519.000000	13.366800
518.000000	13.131200
517.000000	12.897400
516.000000	12.670800
515.000000	12.445900
514.000000	12.207100
513.000000	12.014900
512.000000	11.824300
511.000000	11.607100
510.000000	11.422900
509.000000	11.230500
508.000000	11.079400
507.000000	10.929800
506.000000	10.766400
505.000000	10.632300
504.000000	10.474400
503.000000	10.307000
502.000000	10.171600
501.000000	10.042100
500.000000	9.971900
499.000000	9.848600
498.000000	9.761500
497.000000	9.600100
496.000000	9.553500
495.000000	9.422300
494.000000	9.338300
493.000000	9.233900
492.000000	9.124800
491.000000	9.074800
490.000000	9.005200
489.000000	8.922600
488.000000	8.862300
487.000000	8.807300
486.000000	8.732200
485.000000	8.648600
484.000000	8.623300
483.000000	8.547500
482.000000	8.496000
481.000000	8.418600
480.000000	8.344100
479.000000	8.278900
478.000000	8.243700
477.000000	8.173900
476.000000	8.111200
475.000000	8.075500
474.000000	8.028200
473.000000	7.966500
472.000000	7.906300
471.000000	7.854900
470.000000	7.831200
469.000000	7.767500
468.000000	7.695700
467.000000	7.670200
466.000000	7.624500
465.000000	7.573400
464.000000	7.515800
463.000000	7.475300
462.000000	7.460300
461.000000	7.417400
460.000000	7.361300
459.000000	7.345900
458.000000	7.297800
457.000000	7.236200
456.000000	7.201300
455.000000	7.166600
454.000000	7.149600
453.000000	7.127800
452.000000	7.084700
451.000000	7.046700
450.000000	7.012400
449.000000	7.000500
448.000000	6.922100
447.000000	6.887500
446.000000	6.857900
445.000000	6.856200
444.000000	6.815200
443.000000	6.782000
442.000000	6.746700
441.000000	6.707000
440.000000	6.695100
439.000000	6.607800
438.000000	6.605900
437.000000	6.570100
436.000000	6.510700
435.000000	6.467000
434.000000	6.432000
433.000000	6.402800
432.000000	6.343200
431.000000	6.354700
430.000000	6.296000
429.000000	6.268700
428.000000	6.227700
427.000000	6.205500
426.000000	6.127500
425.000000	6.134800
424.000000	6.100400
423.000000	6.071400
422.000000	6.057900
421.000000	6.006900
420.000000	5.973900
419.000000	5.941400
418.000000	5.910100
417.000000	5.875900
416.000000	5.831200
415.000000	5.785300
414.000000	5.746600
413.000000	5.746800
412.000000	5.689300
411.000000	5.666200
410.000000	5.610600
409.000000	5.597200
408.000000	5.579800
407.000000	5.519800
406.000000	5.475600
405.000000	5.458200
404.000000	5.413700
403.000000	5.392500
402.000000	5.355500
401.000000	5.334000
400.000000	5.280400
399.000000	5.253300
398.000000	5.159800
397.000000	5.156400
396.000000	5.110600
395.000000	5.080600
394.000000	5.043700
393.000000	5.006700
392.000000	4.913400
391.000000	4.875300
390.000000	4.858000
389.000000	4.780300
388.000000	4.732900
387.000000	4.711300
386.000000	4.695900
385.000000	4.663600
384.000000	4.597600
383.000000	4.569300
382.000000	4.580800
381.000000	4.522700
380.000000	4.505000
379.000000	4.487800
378.000000	4.432400
377.000000	4.421900
376.000000	4.475900
375.000000	4.373200
374.000000	4.125300
373.000000	3.928700
372.000000	3.367000
371.000000	3.709700
370.000000	3.638300
369.000000	3.682800
368.000000	3.885100
367.000000	3.776200
366.000000	3.807300
365.000000	4.105000
364.000000	4.060100
363.000000	4.064700
362.000000	4.081600
361.000000	4.216100
360.000000	4.245000
359.000000	4.126700
358.000000	4.368300
357.000000	4.151200
356.000000	3.980700
355.000000	4.181800
354.000000	4.114900
353.000000	3.961400
352.000000	3.851500
351.000000	4.144600
350.000000	4.118100
349.000000	4.060500
348.000000	4.176900
347.000000	4.405100
346.000000	4.606900
345.000000	4.417300
344.000000	3.981700
343.000000	3.926200
342.000000	4.506300
341.000000	4.705500
340.000000	4.496600
339.000000	4.386900
338.000000	4.874300
337.000000	4.648000
336.000000	4.309000
335.000000	4.778400
334.000000	4.966600
333.000000	4.655700
332.000000	4.922900
331.000000	4.773500
330.000000	4.521800
329.000000	5.272900
328.000000	5.914700
327.000000	6.184800
326.000000	5.837500
325.000000	4.818100
324.000000	4.719000
323.000000	5.375200
322.000000	5.547200
321.000000	5.656000
320.000000	5.282000
319.000000	6.159700
318.000000	6.512300
317.000000	6.701500
316.000000	5.490500
315.000000	4.052700
314.000000	4.061700
313.000000	4.071900
312.000000	4.088000
311.000000	4.127500
310.000000	4.149600
309.000000	4.093900
308.000000	4.031200
307.000000	4.074500
306.000000	4.081100
305.000000	4.076200
304.000000	4.078100
303.000000	4.046400
302.000000	4.004800
301.000000	4.044700
300.000000	4.050300
299.000000	4.101400
298.000000	4.025400
297.000000	4.070000
296.000000	4.109200
295.000000	4.093300
294.000000	4.093100
293.000000	4.060100
292.000000	4.039400
291.000000	4.119200
290.000000	4.104000
289.000000	4.053200
288.000000	4.095700
287.000000	4.107300
286.000000	4.130900
285.000000	4.144900
284.000000	4.138300
283.000000	4.190600
282.000000	4.144600
281.000000	4.183400
280.000000	4.161900
279.000000	4.192000
278.000000	4.249500
277.000000	4.259900
276.000000	4.204500
275.000000	4.194600
274.000000	4.222300
273.000000	4.252800
272.000000	4.164100
271.000000	4.263400
270.000000	4.295400
269.000000	4.308300
268.000000	4.300700
267.000000	4.378500
266.000000	4.318500
265.000000	4.326200
264.000000	4.408600
263.000000	4.465300
262.000000	4.486200
261.000000	4.424200
260.000000	4.454500
259.000000	4.395700
258.000000	4.437700
257.000000	4.452500
256.000000	4.393700
255.000000	4.431400
254.000000	4.424200
253.000000	4.395500
252.000000	4.474600
251.000000	4.508200
250.000000	4.426600
