PE UV       SUBTECH     SPECTRUM    ASCII       PEDS        4.00        
   -1
M.HIRT.DIUR-TX3.ASC
23/11/30
14:37:47.00
23/11/30
14:37:47.00
Vinicio Soto Monge
MACRASPIS HIRTIVENTIS DIURNA
250,000000
1
Lambda 1050
1050L1511233
PerkinElmer UV WinLab 6.3.2.0749 / 2.02.05 Lambda 900 UV/VIS/NIR, Aug  7 2015 09:38:08

0
0
3350/servo 860,8/2
0
0
UV/VIS
1
1
1
DoubleDePol,CommonBeamDepol,RBeamAtt,SBeamAtt,60mm sphere, WB InGaAs Detector
0
0
0
0
Program
Program
3350/servo 860,8/2
3350/0,4 860,8/0,4
3350/0,4 860,8/0,4
0
20.00
 
 
 
0
 
860,8
319,2
860,8
Front
100
on
S:100 R:100
0
0
0
0
 
0
 
 
 
0
 
 
0
0
0
0
0
 
 
 
 
0
0


0
0
#HDR
-1
-1
#GR
nm
%R
1.0
0.0
2200,000000
-1,000000
1951
8
47,460125
0,241152
#DATA
284.000000	5.131679
285.000000	5.119037
286.000000	5.108634
287.000000	5.099890
288.000000	5.092540
289.000000	5.085826
290.000000	5.078975
291.000000	5.072134
292.000000	5.065211
293.000000	5.061593
294.000000	5.057846
295.000000	5.055094
296.000000	5.052796
297.000000	5.051074
298.000000	5.049246
299.000000	5.047332
300.000000	5.048055
301.000000	5.047628
302.000000	5.048594
303.000000	5.048436
304.000000	5.049141
305.000000	5.050037
306.000000	5.052371
307.000000	5.053075
308.000000	5.054729
309.000000	5.055101
310.000000	5.055911
311.000000	5.057615
312.000000	5.059689
313.000000	5.060467
314.000000	5.060588
315.000000	5.063671
316.000000	5.063123
317.000000	5.060224
318.000000	5.055788
319.000000	5.049346
320.000000	5.038583
321.000000	5.029780
322.000000	5.026123
323.000000	5.019406
324.000000	5.011621
325.000000	5.005995
326.000000	4.997316
327.000000	4.987581
328.000000	4.976925
329.000000	4.963834
330.000000	4.952453
331.000000	4.940001
332.000000	4.926642
333.000000	4.914713
334.000000	4.901628
335.000000	4.887212
336.000000	4.873278
337.000000	4.857775
338.000000	4.843881
339.000000	4.829355
340.000000	4.816313
341.000000	4.802979
342.000000	4.789011
343.000000	4.775420
344.000000	4.764560
345.000000	4.752163
346.000000	4.738777
347.000000	4.725359
348.000000	4.711861
349.000000	4.698481
350.000000	4.682659
351.000000	4.669058
352.000000	4.658687
353.000000	4.651206
354.000000	4.643370
355.000000	4.641884
356.000000	4.638165
357.000000	4.627087
358.000000	4.619685
359.000000	4.613173
360.000000	4.604469
361.000000	4.598329
362.000000	4.592753
363.000000	4.588294
364.000000	4.585214
365.000000	4.578318
366.000000	4.574004
367.000000	4.569462
368.000000	4.564498
369.000000	4.559911
370.000000	4.554312
371.000000	4.548184
372.000000	4.544930
373.000000	4.539712
374.000000	4.534000
375.000000	4.529095
376.000000	4.522508
377.000000	4.519408
378.000000	4.515931
379.000000	4.510605
380.000000	4.505752
381.000000	4.501717
382.000000	4.497967
383.000000	4.493709
384.000000	4.489429
385.000000	4.485967
386.000000	4.481220
387.000000	4.476202
388.000000	4.470657
389.000000	4.467097
390.000000	4.461977
391.000000	4.457105
392.000000	4.452939
393.000000	4.447868
394.000000	4.442728
395.000000	4.437972
396.000000	4.433617
397.000000	4.429863
398.000000	4.425117
399.000000	4.420899
400.000000	4.417966
401.000000	4.414252
402.000000	4.410635
403.000000	4.406148
404.000000	4.402266
405.000000	4.399627
406.000000	4.397455
407.000000	4.393888
408.000000	4.392154
409.000000	4.390423
410.000000	4.387196
411.000000	4.384963
412.000000	4.380164
413.000000	4.375768
414.000000	4.371818
415.000000	4.367940
416.000000	4.364229
417.000000	4.360630
418.000000	4.357406
419.000000	4.354718
420.000000	4.352176
421.000000	4.349900
422.000000	4.347955
423.000000	4.346192
424.000000	4.344421
425.000000	4.343018
426.000000	4.342109
427.000000	4.341683
428.000000	4.341330
429.000000	4.341142
430.000000	4.341143
431.000000	4.341208
432.000000	4.341464
433.000000	4.342100
434.000000	4.343094
435.000000	4.344787
436.000000	4.346968
437.000000	4.349330
438.000000	4.352360
439.000000	4.355787
440.000000	4.359813
441.000000	4.364522
442.000000	4.370198
443.000000	4.376480
444.000000	4.383679
445.000000	4.391891
446.000000	4.401206
447.000000	4.411792
448.000000	4.423536
449.000000	4.436690
450.000000	4.451694
451.000000	4.468838
452.000000	4.488098
453.000000	4.509642
454.000000	4.534046
455.000000	4.561637
456.000000	4.592186
457.000000	4.626216
458.000000	4.664372
459.000000	4.706837
460.000000	4.753745
461.000000	4.805606
462.000000	4.863565
463.000000	4.927953
464.000000	4.999165
465.000000	5.077982
466.000000	5.164875
467.000000	5.260489
468.000000	5.365114
469.000000	5.479088
470.000000	5.602070
471.000000	5.734146
472.000000	5.874847
473.000000	6.022922
474.000000	6.177419
475.000000	6.336613
476.000000	6.499034
477.000000	6.663110
478.000000	6.827443
479.000000	6.990208
480.000000	7.149442
481.000000	7.303790
482.000000	7.451564
483.000000	7.591878
484.000000	7.723725
485.000000	7.845279
486.000000	7.956083
487.000000	8.056146
488.000000	8.145261
489.000000	8.222450
490.000000	8.288152
491.000000	8.342884
492.000000	8.385978
493.000000	8.417905
494.000000	8.438792
495.000000	8.448915
496.000000	8.448238
497.000000	8.436529
498.000000	8.413720
499.000000	8.379617
500.000000	8.333775
501.000000	8.275870
502.000000	8.205473
503.000000	8.122715
504.000000	8.027828
505.000000	7.920779
506.000000	7.802097
507.000000	7.672411
508.000000	7.533341
509.000000	7.386030
510.000000	7.232032
511.000000	7.072888
512.000000	6.910317
513.000000	6.745960
514.000000	6.581450
515.000000	6.419166
516.000000	6.260164
517.000000	6.106102
518.000000	5.957793
519.000000	5.815830
520.000000	5.681771
521.000000	5.555864
522.000000	5.438278
523.000000	5.328833
524.000000	5.228000
525.000000	5.135504
526.000000	5.050781
527.000000	4.973692
528.000000	4.903506
529.000000	4.839836
530.000000	4.781958
531.000000	4.729849
532.000000	4.682360
533.000000	4.639439
534.000000	4.600707
535.000000	4.565984
536.000000	4.535177
537.000000	4.507592
538.000000	4.483106
539.000000	4.460894
540.000000	4.441145
541.000000	4.423396
542.000000	4.407631
543.000000	4.393678
544.000000	4.380979
545.000000	4.369556
546.000000	4.359208
547.000000	4.349873
548.000000	4.341664
549.000000	4.334394
550.000000	4.327376
551.000000	4.320993
552.000000	4.315245
553.000000	4.310140
554.000000	4.305722
555.000000	4.301390
556.000000	4.297596
557.000000	4.294074
558.000000	4.291015
559.000000	4.288470
560.000000	4.285866
561.000000	4.283544
562.000000	4.281586
563.000000	4.280099
564.000000	4.278631
565.000000	4.277405
566.000000	4.276311
567.000000	4.275826
568.000000	4.275463
569.000000	4.275249
570.000000	4.275033
571.000000	4.274932
572.000000	4.275393
573.000000	4.275901
574.000000	4.276759
575.000000	4.277730
576.000000	4.278893
577.000000	4.280233
578.000000	4.281063
579.000000	4.282481
580.000000	4.284319
581.000000	4.286300
582.000000	4.288590
583.000000	4.290950
584.000000	4.293379
585.000000	4.296241
586.000000	4.299305
587.000000	4.302287
588.000000	4.305247
589.000000	4.308456
590.000000	4.312360
591.000000	4.316299
592.000000	4.320795
593.000000	4.325197
594.000000	4.329780
595.000000	4.334441
596.000000	4.339161
597.000000	4.344082
598.000000	4.348816
599.000000	4.353985
600.000000	4.359564
601.000000	4.365533
602.000000	4.371731
603.000000	4.378042
604.000000	4.384985
605.000000	4.392356
606.000000	4.399793
607.000000	4.407357
608.000000	4.415193
609.000000	4.423407
610.000000	4.432248
611.000000	4.441245
612.000000	4.450549
613.000000	4.460700
614.000000	4.470681
615.000000	4.480800
616.000000	4.491418
617.000000	4.502167
618.000000	4.513433
619.000000	4.525235
620.000000	4.537525
621.000000	4.549979
622.000000	4.563051
623.000000	4.576788
624.000000	4.590820
625.000000	4.604937
626.000000	4.619774
627.000000	4.634843
628.000000	4.650770
629.000000	4.667150
630.000000	4.683960
631.000000	4.701465
632.000000	4.719415
633.000000	4.737789
634.000000	4.756663
635.000000	4.776153
636.000000	4.795920
637.000000	4.816152
638.000000	4.837032
639.000000	4.858263
640.000000	4.880424
641.000000	4.903292
642.000000	4.926580
643.000000	4.950808
644.000000	4.975515
645.000000	5.000649
646.000000	5.026606
647.000000	5.053259
648.000000	5.080437
649.000000	5.108356
650.000000	5.137100
651.000000	5.166411
652.000000	5.196345
653.000000	5.227077
654.000000	5.258306
655.000000	5.290257
656.000000	5.323104
657.000000	5.356415
658.000000	5.390303
659.000000	5.425247
660.000000	5.460971
661.000000	5.497082
662.000000	5.534201
663.000000	5.571987
664.000000	5.610553
665.000000	5.649833
666.000000	5.689715
667.000000	5.730439
668.000000	5.772024
669.000000	5.814400
670.000000	5.857362
671.000000	5.901042
672.000000	5.945479
673.000000	5.990934
674.000000	6.037358
675.000000	6.084007
676.000000	6.131174
677.000000	6.179478
678.000000	6.228489
679.000000	6.277999
680.000000	6.328135
681.000000	6.379114
682.000000	6.431011
683.000000	6.483825
684.000000	6.537531
685.000000	6.591748
686.000000	6.646574
687.000000	6.701991
688.000000	6.757576
689.000000	6.814042
690.000000	6.871224
691.000000	6.929165
692.000000	6.987916
693.000000	7.047234
694.000000	7.107503
695.000000	7.168736
696.000000	7.230837
697.000000	7.292864
698.000000	7.355838
699.000000	7.419384
700.000000	7.483702
701.000000	7.548767
702.000000	7.614797
703.000000	7.681850
704.000000	7.749228
705.000000	7.817146
706.000000	7.885606
707.000000	7.954520
708.000000	8.024199
709.000000	8.094039
710.000000	8.164372
711.000000	8.236517
712.000000	8.309508
713.000000	8.382245
714.000000	8.455945
715.000000	8.530524
716.000000	8.605363
717.000000	8.680635
718.000000	8.756568
719.000000	8.833463
720.000000	8.911440
721.000000	8.990322
722.000000	9.069772
723.000000	9.149632
724.000000	9.230152
725.000000	9.310954
726.000000	9.392403
727.000000	9.474476
728.000000	9.557314
729.000000	9.640532
730.000000	9.724355
731.000000	9.808747
732.000000	9.894303
733.000000	9.980200
734.000000	10.067052
735.000000	10.154761
736.000000	10.242544
737.000000	10.330484
738.000000	10.418916
739.000000	10.508263
740.000000	10.598757
741.000000	10.689464
742.000000	10.780454
743.000000	10.871914
744.000000	10.964756
745.000000	11.058539
746.000000	11.151345
747.000000	11.244259
748.000000	11.338421
749.000000	11.433567
750.000000	11.528868
751.000000	11.625490
752.000000	11.723319
753.000000	11.821925
754.000000	11.920670
755.000000	12.018673
756.000000	12.117124
757.000000	12.216943
758.000000	12.317178
759.000000	12.416857
760.000000	12.517819
761.000000	12.619454
762.000000	12.721512
763.000000	12.824826
764.000000	12.928873
765.000000	13.033161
766.000000	13.137958
767.000000	13.241982
768.000000	13.347474
769.000000	13.453042
770.000000	13.558168
771.000000	13.665322
772.000000	13.773127
773.000000	13.882054
774.000000	13.989801
775.000000	14.098054
776.000000	14.207331
777.000000	14.317651
778.000000	14.428545
779.000000	14.540754
780.000000	14.651489
781.000000	14.762936
782.000000	14.875695
783.000000	14.989377
784.000000	15.101092
785.000000	15.212954
786.000000	15.327058
787.000000	15.441571
788.000000	15.554415
789.000000	15.667905
790.000000	15.783911
791.000000	15.900474
792.000000	16.016184
793.000000	16.132728
794.000000	16.251275
795.000000	16.368567
796.000000	16.485720
797.000000	16.604101
798.000000	16.722189
799.000000	16.842086
800.000000	16.960938
801.000000	17.080138
802.000000	17.200913
803.000000	17.321978
804.000000	17.443640
805.000000	17.566462
806.000000	17.688009
807.000000	17.809982
808.000000	17.931251
809.000000	18.055251
810.000000	18.178145
811.000000	18.302679
812.000000	18.426186
813.000000	18.550983
814.000000	18.673430
815.000000	18.799410
816.000000	18.924485
817.000000	19.049432
818.000000	19.176229
819.000000	19.303935
820.000000	19.429509
821.000000	19.553014
822.000000	19.678632
823.000000	19.803735
824.000000	19.928883
825.000000	20.053519
826.000000	20.180812
827.000000	20.308144
828.000000	20.437133
829.000000	20.560583
830.000000	20.687087
831.000000	20.814473
832.000000	20.944452
833.000000	21.071662
834.000000	21.200708
835.000000	21.329599
836.000000	21.456757
837.000000	21.581169
838.000000	21.705086
839.000000	21.831900
840.000000	21.961663
841.000000	22.088208
842.000000	22.217076
843.000000	22.344204
844.000000	22.474899
845.000000	22.603745
846.000000	22.730328
847.000000	22.858308
848.000000	22.991257
849.000000	23.123381
850.000000	23.249279
851.000000	23.377546
852.000000	23.504065
853.000000	23.626944
854.000000	23.762087
855.000000	23.894300
856.000000	24.025847
857.000000	24.148368
858.000000	24.235893
859.000000	24.361463
860.000000	24.500878
861.000000	24.642278
862.000000	24.775694
863.000000	24.906583
864.000000	25.029881
865.000000	25.156522
866.000000	25.250143
867.000000	25.395259
868.000000	25.526327
869.000000	25.650340
870.000000	25.776571
871.000000	25.922664
872.000000	26.088225
873.000000	26.257923
874.000000	26.400394
875.000000	26.545030
876.000000	26.701491
877.000000	26.878157
878.000000	27.037769
879.000000	27.185570
880.000000	27.316564
881.000000	27.444390
882.000000	27.578579
883.000000	27.702722
884.000000	27.862044
885.000000	28.027540
886.000000	28.151143
887.000000	28.278420
888.000000	28.442748
889.000000	28.564873
890.000000	28.740560
891.000000	28.887640
892.000000	29.078431
893.000000	29.275141
894.000000	29.411639
895.000000	29.541641
896.000000	29.699039
897.000000	29.815805
898.000000	29.926537
899.000000	30.081681
900.000000	30.215806
901.000000	30.377528
902.000000	30.490883
903.000000	30.652699
904.000000	30.801734
905.000000	30.934241
906.000000	31.055909
907.000000	31.164447
908.000000	31.292554
909.000000	31.413328
910.000000	31.529072
911.000000	31.652658
912.000000	31.723333
913.000000	31.841447
914.000000	31.966561
915.000000	32.106434
916.000000	32.237129
917.000000	32.403207
918.000000	32.574436
919.000000	32.683034
920.000000	32.799488
921.000000	32.946457
922.000000	33.051739
923.000000	33.148417
924.000000	33.298349
925.000000	33.371625
926.000000	33.496245
927.000000	33.546686
928.000000	33.651435
929.000000	33.767942
930.000000	33.885546
931.000000	33.949014
932.000000	34.070108
933.000000	34.218889
934.000000	34.355617
935.000000	34.488707
936.000000	34.602976
937.000000	34.693025
938.000000	34.761523
939.000000	34.878918
940.000000	35.032153
941.000000	35.161696
942.000000	35.288009
943.000000	35.380123
944.000000	35.499509
945.000000	35.622890
946.000000	35.686029
947.000000	35.823382
948.000000	35.915698
949.000000	35.996380
950.000000	36.088356
951.000000	36.204003
952.000000	36.292622
953.000000	36.360941
954.000000	36.485926
955.000000	36.593143
956.000000	36.709219
957.000000	36.868259
958.000000	37.013408
959.000000	37.125151
960.000000	37.257560
961.000000	37.349285
962.000000	37.498207
963.000000	37.617114
964.000000	37.744247
965.000000	37.881678
966.000000	38.024976
967.000000	38.136215
968.000000	38.234293
969.000000	38.303628
970.000000	38.378905
971.000000	38.474079
972.000000	38.589191
973.000000	38.704572
974.000000	38.808332
975.000000	38.899084
976.000000	38.995401
977.000000	39.088530
978.000000	39.203748
979.000000	39.309472
980.000000	39.416024
981.000000	39.570541
982.000000	39.694221
983.000000	39.807092
984.000000	39.946905
985.000000	40.105850
986.000000	40.223600
987.000000	40.325930
988.000000	40.458761
989.000000	40.577055
990.000000	40.678637
991.000000	40.752945
992.000000	40.831505
993.000000	40.902049
994.000000	40.987855
995.000000	41.083716
996.000000	41.192304
997.000000	41.287337
998.000000	41.399998
999.000000	41.493852
1000.000000	41.557831
1001.000000	41.654511
1002.000000	41.771349
1003.000000	41.873408
1004.000000	41.993797
1005.000000	42.132968
1006.000000	42.259862
1007.000000	42.367724
1008.000000	42.477586
1009.000000	42.564193
1010.000000	42.641004
1011.000000	42.717961
1012.000000	42.801198
1013.000000	42.881324
1014.000000	42.983100
1015.000000	43.062822
1016.000000	43.129667
1017.000000	43.184088
1018.000000	43.252831
1019.000000	43.320495
1020.000000	43.372916
1021.000000	43.464743
1022.000000	43.541945
1023.000000	43.587716
1024.000000	43.605202
1025.000000	43.673934
1026.000000	43.786442
1027.000000	43.886073
1028.000000	43.995673
1029.000000	44.096836
1030.000000	44.165838
1031.000000	44.228100
1032.000000	44.279478
1033.000000	44.315914
1034.000000	44.380401
1035.000000	44.460494
1036.000000	44.539420
1037.000000	44.596716
1038.000000	44.656529
1039.000000	44.709989
1040.000000	44.760116
1041.000000	44.826271
1042.000000	44.911768
1043.000000	45.002942
1044.000000	45.070948
1045.000000	45.150996
1046.000000	45.234930
1047.000000	45.317222
1048.000000	45.368187
1049.000000	45.411294
1050.000000	45.480392
1051.000000	45.551384
1052.000000	45.599765
1053.000000	45.641784
1054.000000	45.695841
1055.000000	45.768549
1056.000000	45.817710
1057.000000	45.877905
1058.000000	45.943997
1059.000000	46.020614
1060.000000	46.086997
1061.000000	46.134219
1062.000000	46.163743
1063.000000	46.191919
1064.000000	46.206404
1065.000000	46.269293
1066.000000	46.359732
1067.000000	46.442959
1068.000000	46.530548
1069.000000	46.643581
1070.000000	46.723841
1071.000000	46.798336
1072.000000	46.877495
1073.000000	46.952191
1074.000000	46.998280
1075.000000	47.055576
1076.000000	47.099700
1077.000000	47.155680
1078.000000	47.200504
1079.000000	47.229543
1080.000000	47.255421
1081.000000	47.317509
1082.000000	47.343494
1083.000000	47.458793
1084.000000	47.559253
1085.000000	47.642743
1086.000000	47.751168
1087.000000	47.826404
1088.000000	47.930219
1089.000000	48.002865
1090.000000	48.043734
1091.000000	48.097092
1092.000000	48.114585
1093.000000	48.127956
1094.000000	48.205846
1095.000000	48.294895
1096.000000	48.344787
1097.000000	48.428948
1098.000000	48.500421
1099.000000	48.587205
1100.000000	48.636757
1101.000000	48.694273
1102.000000	48.765983
1103.000000	48.784552
1104.000000	48.807950
1105.000000	48.843764
1106.000000	48.891610
1107.000000	48.960078
1108.000000	48.996332
1109.000000	49.037347
1110.000000	49.111664
1111.000000	49.199898
1112.000000	49.248811
1113.000000	49.289799
1114.000000	49.365212
1115.000000	49.444350
1116.000000	49.445645
1117.000000	49.504694
1118.000000	49.534020
1119.000000	49.541109
1120.000000	49.543995
1121.000000	49.549791
1122.000000	49.599232
1123.000000	49.614472
1124.000000	49.675851
1125.000000	49.712588
1126.000000	49.752933
1127.000000	49.869018
1128.000000	49.998335
1129.000000	50.034760
1130.000000	50.042951
1131.000000	50.111014
1132.000000	50.137235
1133.000000	50.217570
1134.000000	50.270793
1135.000000	50.337900
1136.000000	50.362957
1137.000000	50.383129
1138.000000	50.451401
1139.000000	50.471107
1140.000000	50.483722
1141.000000	50.472290
1142.000000	50.480005
1143.000000	50.533351
1144.000000	50.575218
1145.000000	50.601092
1146.000000	50.621022
1147.000000	50.666225
1148.000000	50.697716
1149.000000	50.732114
1150.000000	50.761502
1151.000000	50.824911
1152.000000	50.846586
1153.000000	50.866372
1154.000000	50.887439
1155.000000	50.956854
1156.000000	50.963137
1157.000000	50.961254
1158.000000	51.036847
1159.000000	51.033815
1160.000000	51.070585
1161.000000	51.106936
1162.000000	51.113171
1163.000000	51.091294
1164.000000	51.092382
1165.000000	51.110323
1166.000000	51.089244
1167.000000	51.093410
1168.000000	51.060520
1169.000000	51.044279
1170.000000	50.982834
1171.000000	50.962152
1172.000000	50.957764
1173.000000	50.982157
1174.000000	51.013860
1175.000000	51.053084
1176.000000	51.094209
1177.000000	51.123849
1178.000000	51.102849
1179.000000	51.131838
1180.000000	51.132034
1181.000000	51.149350
1182.000000	51.155875
1183.000000	51.185275
1184.000000	51.176815
1185.000000	51.158677
1186.000000	51.166887
1187.000000	51.226362
1188.000000	51.243160
1189.000000	51.261272
1190.000000	51.241474
1191.000000	51.287190
1192.000000	51.347020
1193.000000	51.337252
1194.000000	51.339201
1195.000000	51.343761
1196.000000	51.385585
1197.000000	51.388423
1198.000000	51.435762
1199.000000	51.480927
1200.000000	51.524124
1201.000000	51.567166
1202.000000	51.621818
1203.000000	51.628699
1204.000000	51.656272
1205.000000	51.748430
1206.000000	51.805975
1207.000000	51.835637
1208.000000	51.824040
1209.000000	51.810078
1210.000000	51.804705
1211.000000	51.825240
1212.000000	51.839464
1213.000000	51.911948
1214.000000	51.945644
1215.000000	51.960845
1216.000000	51.969477
1217.000000	52.003373
1218.000000	52.012104
1219.000000	52.053208
1220.000000	52.092565
1221.000000	52.082130
1222.000000	52.079162
1223.000000	52.079413
1224.000000	52.111734
1225.000000	52.145366
1226.000000	52.139671
1227.000000	52.167075
1228.000000	52.196580
1229.000000	52.233793
1230.000000	52.235885
1231.000000	52.224063
1232.000000	52.231490
1233.000000	52.210261
1234.000000	52.228023
1235.000000	52.228630
1236.000000	52.237549
1237.000000	52.239218
1238.000000	52.282035
1239.000000	52.291046
1240.000000	52.293028
1241.000000	52.316745
1242.000000	52.331344
1243.000000	52.377502
1244.000000	52.438038
1245.000000	52.487983
1246.000000	52.515689
1247.000000	52.511838
1248.000000	52.496970
1249.000000	52.524748
1250.000000	52.551698
1251.000000	52.558588
1252.000000	52.535731
1253.000000	52.551801
1254.000000	52.586923
1255.000000	52.629377
1256.000000	52.680311
1257.000000	52.686680
1258.000000	52.708967
1259.000000	52.735307
1260.000000	52.758466
1261.000000	52.791023
1262.000000	52.790569
1263.000000	52.810006
1264.000000	52.832006
1265.000000	52.884734
1266.000000	52.911373
1267.000000	52.928311
1268.000000	52.975595
1269.000000	52.994087
1270.000000	53.009480
1271.000000	53.031092
1272.000000	53.002460
1273.000000	52.983585
1274.000000	53.020570
1275.000000	53.037228
1276.000000	53.049238
1277.000000	53.092630
1278.000000	53.117789
1279.000000	53.123870
1280.000000	53.137644
1281.000000	53.144357
1282.000000	53.174589
1283.000000	53.195389
1284.000000	53.158383
1285.000000	53.160935
1286.000000	53.197506
1287.000000	53.257419
1288.000000	53.293272
1289.000000	53.310782
1290.000000	53.326017
1291.000000	53.360670
1292.000000	53.399925
1293.000000	53.417232
1294.000000	53.376556
1295.000000	53.354300
1296.000000	53.359853
1297.000000	53.358771
1298.000000	53.360604
1299.000000	53.378148
1300.000000	53.379783
1301.000000	53.361932
1302.000000	53.373754
1303.000000	53.384279
1304.000000	53.401235
1305.000000	53.387611
1306.000000	53.384366
1307.000000	53.456992
1308.000000	53.481987
1309.000000	53.474064
1310.000000	53.488280
1311.000000	53.503690
1312.000000	53.523664
1313.000000	53.534904
1314.000000	53.547644
1315.000000	53.541144
1316.000000	53.560250
1317.000000	53.582536
1318.000000	53.594485
1319.000000	53.636209
1320.000000	53.653883
1321.000000	53.671473
1322.000000	53.666000
1323.000000	53.658045
1324.000000	53.637617
1325.000000	53.616188
1326.000000	53.605152
1327.000000	53.610986
1328.000000	53.624981
1329.000000	53.697139
1330.000000	53.754873
1331.000000	53.756546
1332.000000	53.787054
1333.000000	53.788019
1334.000000	53.791762
1335.000000	53.810806
1336.000000	53.830379
1337.000000	53.843436
1338.000000	53.815335
1339.000000	53.770312
1340.000000	53.773036
1341.000000	53.773337
1342.000000	53.745058
1343.000000	53.742653
1344.000000	53.743363
1345.000000	53.716927
1346.000000	53.729860
1347.000000	53.697883
1348.000000	53.659346
1349.000000	53.645727
1350.000000	53.660936
1351.000000	53.663959
1352.000000	53.660671
1353.000000	53.668813
1354.000000	53.618745
1355.000000	53.522402
1356.000000	53.444107
1357.000000	53.386797
1358.000000	53.366061
1359.000000	53.379469
1360.000000	53.299562
1361.000000	53.366800
1362.000000	53.489921
1363.000000	53.490182
1364.000000	53.324424
1365.000000	53.289599
1366.000000	53.209749
1367.000000	52.988573
1368.000000	52.925220
1369.000000	52.799114
1370.000000	52.717496
1371.000000	52.753373
1372.000000	52.752595
1373.000000	52.755525
1374.000000	52.739121
1375.000000	52.770766
1376.000000	52.741360
1377.000000	52.690600
1378.000000	52.600307
1379.000000	52.603977
1380.000000	52.887334
1381.000000	52.755391
1382.000000	52.625423
1383.000000	52.519273
1384.000000	52.480691
1385.000000	52.486257
1386.000000	52.463595
1387.000000	52.405534
1388.000000	52.402244
1389.000000	52.383555
1390.000000	52.422719
1391.000000	52.380860
1392.000000	52.345508
1393.000000	52.189589
1394.000000	52.105896
1395.000000	52.087439
1396.000000	52.149145
1397.000000	52.017578
1398.000000	51.931422
1399.000000	51.957830
1400.000000	51.758422
1401.000000	51.726063
1402.000000	51.866074
1403.000000	51.831408
1404.000000	51.977940
1405.000000	51.944857
1406.000000	51.798392
1407.000000	51.655809
1408.000000	51.512557
1409.000000	51.424306
1410.000000	51.246871
1411.000000	51.178763
1412.000000	51.123489
1413.000000	51.136357
1414.000000	50.973312
1415.000000	50.562018
1416.000000	50.536121
1417.000000	50.503329
1418.000000	50.525056
1419.000000	50.390516
1420.000000	50.179791
1421.000000	50.017504
1422.000000	49.929692
1423.000000	49.769525
1424.000000	49.668609
1425.000000	49.524803
1426.000000	49.490857
1427.000000	49.444937
1428.000000	49.431903
1429.000000	49.342780
1430.000000	49.287632
1431.000000	48.949501
1432.000000	48.725865
1433.000000	48.635326
1434.000000	48.565407
1435.000000	48.551450
1436.000000	48.451878
1437.000000	48.334421
1438.000000	48.224694
1439.000000	47.965179
1440.000000	47.829756
1441.000000	47.730053
1442.000000	47.688965
1443.000000	47.638541
1444.000000	47.550601
1445.000000	47.481511
1446.000000	47.377864
1447.000000	47.267268
1448.000000	47.158086
1449.000000	47.124262
1450.000000	47.073404
1451.000000	46.987875
1452.000000	46.941538
1453.000000	46.819271
1454.000000	46.751984
1455.000000	46.731889
1456.000000	46.666529
1457.000000	46.578068
1458.000000	46.483555
1459.000000	46.422874
1460.000000	46.376965
1461.000000	46.238275
1462.000000	46.103723
1463.000000	46.040687
1464.000000	45.966915
1465.000000	45.877353
1466.000000	45.865671
1467.000000	45.832739
1468.000000	45.731121
1469.000000	45.684904
1470.000000	45.661784
1471.000000	45.615547
1472.000000	45.518291
1473.000000	45.468056
1474.000000	45.436132
1475.000000	45.402418
1476.000000	45.349355
1477.000000	45.264168
1478.000000	45.199076
1479.000000	45.134244
1480.000000	45.087619
1481.000000	45.042484
1482.000000	45.033071
1483.000000	44.981475
1484.000000	44.895709
1485.000000	44.839615
1486.000000	44.807935
1487.000000	44.761326
1488.000000	44.723262
1489.000000	44.712262
1490.000000	44.673296
1491.000000	44.626655
1492.000000	44.560342
1493.000000	44.553167
1494.000000	44.525592
1495.000000	44.530728
1496.000000	44.560749
1497.000000	44.565185
1498.000000	44.538716
1499.000000	44.506194
1500.000000	44.468284
1501.000000	44.411840
1502.000000	44.392608
1503.000000	44.410504
1504.000000	44.383652
1505.000000	44.363586
1506.000000	44.419198
1507.000000	44.474208
1508.000000	44.507716
1509.000000	44.547588
1510.000000	44.559096
1511.000000	44.567725
1512.000000	44.601637
1513.000000	44.643758
1514.000000	44.673534
1515.000000	44.719249
1516.000000	44.763047
1517.000000	44.771473
1518.000000	44.783424
1519.000000	44.830895
1520.000000	44.845357
1521.000000	44.834057
1522.000000	44.861485
1523.000000	44.919788
1524.000000	44.931380
1525.000000	44.930740
1526.000000	44.961372
1527.000000	45.040273
1528.000000	45.091571
1529.000000	45.118543
1530.000000	45.125355
1531.000000	45.152845
1532.000000	45.200264
1533.000000	45.256005
1534.000000	45.315973
1535.000000	45.408383
1536.000000	45.479783
1537.000000	45.530088
1538.000000	45.546485
1539.000000	45.575562
1540.000000	45.641889
1541.000000	45.658343
1542.000000	45.682191
1543.000000	45.698617
1544.000000	45.712000
1545.000000	45.775757
1546.000000	45.827252
1547.000000	45.851927
1548.000000	45.898108
1549.000000	45.973060
1550.000000	46.011026
1551.000000	46.010684
1552.000000	46.029633
1553.000000	46.055934
1554.000000	46.100433
1555.000000	46.145469
1556.000000	46.209428
1557.000000	46.222789
1558.000000	46.215789
1559.000000	46.241780
1560.000000	46.279679
1561.000000	46.327573
1562.000000	46.335180
1563.000000	46.347303
1564.000000	46.377178
1565.000000	46.408991
1566.000000	46.384397
1567.000000	46.389613
1568.000000	46.402676
1569.000000	46.404675
1570.000000	46.395378
1571.000000	46.388036
1572.000000	46.388104
1573.000000	46.399873
1574.000000	46.404431
1575.000000	46.362986
1576.000000	46.320121
1577.000000	46.298860
1578.000000	46.274940
1579.000000	46.276149
1580.000000	46.244765
1581.000000	46.232515
1582.000000	46.236597
1583.000000	46.226303
1584.000000	46.176375
1585.000000	46.156880
1586.000000	46.168454
1587.000000	46.179704
1588.000000	46.175481
1589.000000	46.162979
1590.000000	46.141955
1591.000000	46.152866
1592.000000	46.163091
1593.000000	46.179475
1594.000000	46.210260
1595.000000	46.208436
1596.000000	46.204438
1597.000000	46.208917
1598.000000	46.209399
1599.000000	46.219323
1600.000000	46.243736
1601.000000	46.299340
1602.000000	46.317876
1603.000000	46.343551
1604.000000	46.373077
1605.000000	46.385505
1606.000000	46.413854
1607.000000	46.475962
1608.000000	46.516885
1609.000000	46.565423
1610.000000	46.632232
1611.000000	46.705273
1612.000000	46.750516
1613.000000	46.814204
1614.000000	46.838933
1615.000000	46.858817
1616.000000	46.844642
1617.000000	46.850610
1618.000000	46.877865
1619.000000	46.946738
1620.000000	47.006816
1621.000000	47.031618
1622.000000	47.049164
1623.000000	47.095257
1624.000000	47.113821
1625.000000	47.193027
1626.000000	47.220844
1627.000000	47.275018
1628.000000	47.284067
1629.000000	47.292732
1630.000000	47.331388
1631.000000	47.341809
1632.000000	47.368192
1633.000000	47.404899
1634.000000	47.419659
1635.000000	47.446795
1636.000000	47.481522
1637.000000	47.468682
1638.000000	47.511622
1639.000000	47.545722
1640.000000	47.577592
1641.000000	47.621193
1642.000000	47.632159
1643.000000	47.638176
1644.000000	47.650511
1645.000000	47.638465
1646.000000	47.639362
1647.000000	47.672900
1648.000000	47.678572
1649.000000	47.725834
1650.000000	47.757909
1651.000000	47.865406
1652.000000	47.886249
1653.000000	47.917739
1654.000000	47.903571
1655.000000	47.878093
1656.000000	47.884070
1657.000000	47.893605
1658.000000	47.911700
1659.000000	47.924150
1660.000000	47.909753
1661.000000	47.887821
1662.000000	47.840798
1663.000000	47.874954
1664.000000	47.892399
1665.000000	47.926290
1666.000000	47.954718
1667.000000	47.924800
1668.000000	47.904369
1669.000000	47.904509
1670.000000	47.871521
1671.000000	47.870159
1672.000000	47.866450
1673.000000	47.767702
1674.000000	47.722193
1675.000000	47.678671
1676.000000	47.639588
1677.000000	47.573136
1678.000000	47.524336
1679.000000	47.474571
1680.000000	47.419099
1681.000000	47.348617
1682.000000	47.252931
1683.000000	47.162764
1684.000000	47.069396
1685.000000	46.987474
1686.000000	46.859430
1687.000000	46.804746
1688.000000	46.707654
1689.000000	46.647732
1690.000000	46.616695
1691.000000	46.547901
1692.000000	46.447678
1693.000000	46.361763
1694.000000	46.316729
1695.000000	46.218590
1696.000000	46.153084
1697.000000	46.118711
1698.000000	46.068112
1699.000000	45.999941
1700.000000	45.924393
1701.000000	45.869941
1702.000000	45.842567
1703.000000	45.795407
1704.000000	45.756661
1705.000000	45.728582
1706.000000	45.625425
1707.000000	45.596527
1708.000000	45.620026
1709.000000	45.585585
1710.000000	45.542754
1711.000000	45.449954
1712.000000	45.411841
1713.000000	45.403006
1714.000000	45.378486
1715.000000	45.395542
1716.000000	45.342857
1717.000000	45.282390
1718.000000	45.290676
1719.000000	45.262305
1720.000000	45.243449
1721.000000	45.226325
1722.000000	45.182730
1723.000000	45.158329
1724.000000	45.136188
1725.000000	45.034513
1726.000000	44.973608
1727.000000	44.973514
1728.000000	44.901865
1729.000000	44.814790
1730.000000	44.788529
1731.000000	44.766785
1732.000000	44.703019
1733.000000	44.613220
1734.000000	44.571164
1735.000000	44.549939
1736.000000	44.530526
1737.000000	44.499441
1738.000000	44.455747
1739.000000	44.431982
1740.000000	44.398589
1741.000000	44.397097
1742.000000	44.356050
1743.000000	44.307212
1744.000000	44.286969
1745.000000	44.291008
1746.000000	44.305789
1747.000000	44.299426
1748.000000	44.258017
1749.000000	44.213176
1750.000000	44.170477
1751.000000	44.201270
1752.000000	44.255630
1753.000000	44.236926
1754.000000	44.247365
1755.000000	44.261486
1756.000000	44.244883
1757.000000	44.261736
1758.000000	44.269309
1759.000000	44.261447
1760.000000	44.309284
1761.000000	44.352454
1762.000000	44.373463
1763.000000	44.414850
1764.000000	44.455436
1765.000000	44.445741
1766.000000	44.435357
1767.000000	44.482751
1768.000000	44.539148
1769.000000	44.540330
1770.000000	44.538420
1771.000000	44.561549
1772.000000	44.577090
1773.000000	44.590359
1774.000000	44.595175
1775.000000	44.581624
1776.000000	44.580226
1777.000000	44.620279
1778.000000	44.633477
1779.000000	44.613904
1780.000000	44.589668
1781.000000	44.598827
1782.000000	44.613092
1783.000000	44.622433
1784.000000	44.670268
1785.000000	44.698626
1786.000000	44.699951
1787.000000	44.692378
1788.000000	44.698268
1789.000000	44.692947
1790.000000	44.713721
1791.000000	44.780515
1792.000000	44.818744
1793.000000	44.822901
1794.000000	44.830637
1795.000000	44.839334
1796.000000	44.858404
1797.000000	44.868611
1798.000000	44.879998
1799.000000	44.924830
1800.000000	45.000808
1801.000000	45.033000
1802.000000	45.042688
1803.000000	45.040908
1804.000000	45.051154
1805.000000	45.024784
1806.000000	44.987896
1807.000000	45.015180
1808.000000	45.034386
1809.000000	45.028277
1810.000000	45.041340
1811.000000	45.028395
1812.000000	44.976408
1813.000000	44.935659
1814.000000	44.957535
1815.000000	44.991864
1816.000000	44.932584
1817.000000	44.822016
1818.000000	44.819100
1819.000000	44.829573
1820.000000	44.914726
1821.000000	44.958055
1822.000000	44.898864
1823.000000	44.794393
1824.000000	44.739598
1825.000000	44.626846
1826.000000	44.564379
1827.000000	44.494134
1828.000000	44.468104
1829.000000	44.440132
1830.000000	44.384755
1831.000000	44.353343
1832.000000	44.394121
1833.000000	44.409297
1834.000000	44.366823
1835.000000	44.317548
1836.000000	44.367840
1837.000000	44.414332
1838.000000	44.427213
1839.000000	44.566116
1840.000000	44.665977
1841.000000	44.689335
1842.000000	44.696281
1843.000000	44.701430
1844.000000	44.679214
1845.000000	44.660949
1846.000000	44.685366
1847.000000	44.719150
1848.000000	44.765957
1849.000000	44.791966
1850.000000	44.840631
1851.000000	44.907458
1852.000000	44.979902
1853.000000	44.924991
1854.000000	44.878123
1855.000000	44.823435
1856.000000	44.936073
1857.000000	45.081412
1858.000000	45.267474
1859.000000	45.384430
1860.000000	45.495010
1861.000000	45.501850
1862.000000	45.537288
1863.000000	45.396406
1864.000000	45.259253
1865.000000	45.236721
1866.000000	45.264069
1867.000000	45.314594
1868.000000	45.339566
1869.000000	45.329754
1870.000000	45.148510
1871.000000	44.985817
1872.000000	44.838096
1873.000000	44.762744
1874.000000	44.609356
1875.000000	44.519195
1876.000000	44.358428
1877.000000	44.274534
1878.000000	44.210905
1879.000000	44.192959
1880.000000	44.158490
1881.000000	44.109563
1882.000000	44.053086
1883.000000	43.935182
1884.000000	43.833667
1885.000000	43.707242
1886.000000	43.603080
1887.000000	43.522238
1888.000000	43.480898
1889.000000	43.380656
1890.000000	43.263120
1891.000000	42.960691
1892.000000	42.741895
1893.000000	42.505499
1894.000000	42.282433
1895.000000	42.085596
1896.000000	41.943260
1897.000000	41.722129
1898.000000	41.684488
1899.000000	41.686336
1900.000000	41.533225
1901.000000	41.224762
1902.000000	40.678679
1903.000000	40.288285
1904.000000	40.054243
1905.000000	40.007361
1906.000000	39.773883
1907.000000	39.529649
1908.000000	39.246969
1909.000000	38.933968
1910.000000	38.702330
1911.000000	38.571459
1912.000000	38.321085
1913.000000	38.065588
1914.000000	37.762561
1915.000000	37.487052
1916.000000	37.255548
1917.000000	36.962646
1918.000000	36.704253
1919.000000	36.386733
1920.000000	35.996056
1921.000000	35.690485
1922.000000	35.411272
1923.000000	35.124147
1924.000000	34.885192
1925.000000	34.532993
1926.000000	34.287725
1927.000000	34.001609
1928.000000	33.718657
1929.000000	33.470827
1930.000000	33.206775
1931.000000	32.950692
1932.000000	32.753072
1933.000000	32.512164
1934.000000	32.293601
1935.000000	32.142139
1936.000000	31.983310
1937.000000	32.004471
1938.000000	31.958862
1939.000000	31.797534
1940.000000	31.630670
1941.000000	31.536295
1942.000000	31.447502
1943.000000	31.395099
1944.000000	31.342183
1945.000000	31.184282
1946.000000	31.057290
1947.000000	30.941326
1948.000000	30.848575
1949.000000	30.805824
1950.000000	30.737537
1951.000000	30.640206
1952.000000	30.606137
1953.000000	30.585041
1954.000000	30.562266
1955.000000	30.623792
1956.000000	30.638535
1957.000000	30.636028
1958.000000	30.651413
1959.000000	30.643207
1960.000000	30.672897
1961.000000	30.690347
1962.000000	30.740573
1963.000000	30.820632
1964.000000	30.881731
1965.000000	30.944763
1966.000000	30.984622
1967.000000	31.079554
1968.000000	31.222829
1969.000000	31.270931
1970.000000	31.287411
1971.000000	31.409958
1972.000000	31.486928
1973.000000	31.527723
1974.000000	31.604420
1975.000000	31.673105
1976.000000	31.797051
1977.000000	31.873532
1978.000000	31.908945
1979.000000	31.952747
1980.000000	32.004251
1981.000000	32.079638
1982.000000	32.157778
1983.000000	32.220960
1984.000000	32.267605
1985.000000	32.347891
1986.000000	32.388323
1987.000000	32.450723
1988.000000	32.527093
1989.000000	32.638402
1990.000000	32.721227
1991.000000	32.786975
1992.000000	32.842467
1993.000000	32.925345
1994.000000	32.990132
1995.000000	33.122345
1996.000000	33.219556
1997.000000	33.277148
1998.000000	33.360764
1999.000000	33.407364
2000.000000	33.482966
