PE UV       SUBTECH     SPECTRUM    ASCII       PEDS        4.00        
   -1
S.GLAB.0620-TX3.ASC
23/11/30
12:29:55.00
23/11/30
12:29:55.00
Vinicio Soto Monge
STRIGIDA GLABRA INBIOCRI0003420620
250,000000
1
Lambda 1050
1050L1511233
PerkinElmer UV WinLab 6.3.2.0749 / 2.02.05 Lambda 900 UV/VIS/NIR, Aug  7 2015 09:38:08

0
0
3350/servo 860,8/2
0
0
UV/VIS
1
1
1
DoubleDePol,CommonBeamDepol,RBeamAtt,SBeamAtt,60mm sphere, WB InGaAs Detector
0
0
0
0
Program
Program
3350/servo 860,8/2
3350/0,4 860,8/0,4
3350/0,4 860,8/0,4
0
20.00
 
 
 
0
 
860,8
319,2
860,8
Front
100
on
S:100 R:100
0
0
0
0
 
0
 
 
 
0
 
 
0
0
0
0
0
 
 
 
 
0
0


0
0
#HDR
-1
-1
#GR
nm
%R
1.0
0.0
2200,000000
-1,000000
1951
8
56,969429
0,360001
#DATA
284.000000	5.014294
285.000000	5.044845
286.000000	5.071522
287.000000	5.098211
288.000000	5.124404
289.000000	5.148275
290.000000	5.172027
291.000000	5.194710
292.000000	5.216761
293.000000	5.237701
294.000000	5.256957
295.000000	5.273106
296.000000	5.289829
297.000000	5.306410
298.000000	5.324549
299.000000	5.340586
300.000000	5.353993
301.000000	5.370231
302.000000	5.384690
303.000000	5.397472
304.000000	5.409905
305.000000	5.421675
306.000000	5.431486
307.000000	5.440529
308.000000	5.452268
309.000000	5.461171
310.000000	5.469315
311.000000	5.476553
312.000000	5.482995
313.000000	5.489565
314.000000	5.495611
315.000000	5.501201
316.000000	5.504721
317.000000	5.500665
318.000000	5.497823
319.000000	5.496105
320.000000	5.492660
321.000000	5.491390
322.000000	5.490243
323.000000	5.482224
324.000000	5.479529
325.000000	5.470889
326.000000	5.462199
327.000000	5.455532
328.000000	5.448031
329.000000	5.438256
330.000000	5.432556
331.000000	5.423251
332.000000	5.411074
333.000000	5.401475
334.000000	5.389979
335.000000	5.379147
336.000000	5.365466
337.000000	5.354637
338.000000	5.344443
339.000000	5.331054
340.000000	5.318289
341.000000	5.306903
342.000000	5.295484
343.000000	5.281691
344.000000	5.271123
345.000000	5.259089
346.000000	5.247226
347.000000	5.234732
348.000000	5.222177
349.000000	5.211582
350.000000	5.200906
351.000000	5.191307
352.000000	5.185796
353.000000	5.178248
354.000000	5.170277
355.000000	5.163602
356.000000	5.156430
357.000000	5.146963
358.000000	5.144496
359.000000	5.136254
360.000000	5.132494
361.000000	5.129473
362.000000	5.122739
363.000000	5.117127
364.000000	5.113688
365.000000	5.107440
366.000000	5.104275
367.000000	5.101475
368.000000	5.095532
369.000000	5.091850
370.000000	5.086741
371.000000	5.081805
372.000000	5.076397
373.000000	5.069796
374.000000	5.065910
375.000000	5.060913
376.000000	5.054704
377.000000	5.052275
378.000000	5.049581
379.000000	5.044610
380.000000	5.042152
381.000000	5.038788
382.000000	5.035482
383.000000	5.031623
384.000000	5.026892
385.000000	5.022158
386.000000	5.016681
387.000000	5.013192
388.000000	5.011251
389.000000	5.007539
390.000000	5.003533
391.000000	4.999260
392.000000	4.995669
393.000000	4.990727
394.000000	4.986065
395.000000	4.982884
396.000000	4.978114
397.000000	4.975351
398.000000	4.971953
399.000000	4.967915
400.000000	4.963511
401.000000	4.958966
402.000000	4.955770
403.000000	4.952025
404.000000	4.948589
405.000000	4.946709
406.000000	4.944366
407.000000	4.940650
408.000000	4.938040
409.000000	4.935458
410.000000	4.933478
411.000000	4.931664
412.000000	4.927786
413.000000	4.924202
414.000000	4.920651
415.000000	4.916960
416.000000	4.913618
417.000000	4.910913
418.000000	4.908264
419.000000	4.905495
420.000000	4.902937
421.000000	4.901080
422.000000	4.899298
423.000000	4.897436
424.000000	4.895945
425.000000	4.894709
426.000000	4.893623
427.000000	4.892571
428.000000	4.891559
429.000000	4.890642
430.000000	4.890029
431.000000	4.889782
432.000000	4.889278
433.000000	4.889170
434.000000	4.889004
435.000000	4.888971
436.000000	4.889320
437.000000	4.889433
438.000000	4.889776
439.000000	4.890109
440.000000	4.890666
441.000000	4.891412
442.000000	4.892349
443.000000	4.893279
444.000000	4.894439
445.000000	4.895468
446.000000	4.896625
447.000000	4.898024
448.000000	4.899371
449.000000	4.900914
450.000000	4.902568
451.000000	4.904329
452.000000	4.906219
453.000000	4.908173
454.000000	4.910259
455.000000	4.912119
456.000000	4.913499
457.000000	4.915099
458.000000	4.917140
459.000000	4.919247
460.000000	4.921390
461.000000	4.923558
462.000000	4.925891
463.000000	4.928429
464.000000	4.930911
465.000000	4.933400
466.000000	4.936058
467.000000	4.939069
468.000000	4.942233
469.000000	4.945699
470.000000	4.949214
471.000000	4.952753
472.000000	4.956690
473.000000	4.960856
474.000000	4.965260
475.000000	4.969677
476.000000	4.974024
477.000000	4.978850
478.000000	4.984067
479.000000	4.989646
480.000000	4.995472
481.000000	5.001187
482.000000	5.006664
483.000000	5.012571
484.000000	5.019010
485.000000	5.026160
486.000000	5.034032
487.000000	5.042676
488.000000	5.052298
489.000000	5.063042
490.000000	5.075294
491.000000	5.089103
492.000000	5.104217
493.000000	5.120458
494.000000	5.138305
495.000000	5.158105
496.000000	5.179868
497.000000	5.203205
498.000000	5.228580
499.000000	5.256018
500.000000	5.285133
501.000000	5.315620
502.000000	5.347999
503.000000	5.382227
504.000000	5.418108
505.000000	5.455666
506.000000	5.495246
507.000000	5.537007
508.000000	5.580739
509.000000	5.627224
510.000000	5.676444
511.000000	5.728450
512.000000	5.783778
513.000000	5.842735
514.000000	5.905805
515.000000	5.973373
516.000000	6.045798
517.000000	6.123416
518.000000	6.206278
519.000000	6.294719
520.000000	6.388874
521.000000	6.489127
522.000000	6.595970
523.000000	6.709452
524.000000	6.829559
525.000000	6.956226
526.000000	7.089846
527.000000	7.230739
528.000000	7.379274
529.000000	7.535116
530.000000	7.698473
531.000000	7.869499
532.000000	8.048617
533.000000	8.235515
534.000000	8.430555
535.000000	8.633706
536.000000	8.845645
537.000000	9.065665
538.000000	9.293734
539.000000	9.530081
540.000000	9.774287
541.000000	10.026109
542.000000	10.285417
543.000000	10.551819
544.000000	10.824768
545.000000	11.103795
546.000000	11.388592
547.000000	11.677504
548.000000	11.970609
549.000000	12.266268
550.000000	12.564090
551.000000	12.862997
552.000000	13.162040
553.000000	13.460398
554.000000	13.756549
555.000000	14.049275
556.000000	14.337447
557.000000	14.619886
558.000000	14.894952
559.000000	15.161901
560.000000	15.419586
561.000000	15.666671
562.000000	15.902265
563.000000	16.125147
564.000000	16.334201
565.000000	16.528579
566.000000	16.707688
567.000000	16.871429
568.000000	17.018771
569.000000	17.148974
570.000000	17.261982
571.000000	17.357955
572.000000	17.436557
573.000000	17.498112
574.000000	17.542949
575.000000	17.571743
576.000000	17.584618
577.000000	17.582323
578.000000	17.565812
579.000000	17.535594
580.000000	17.492837
581.000000	17.438080
582.000000	17.373133
583.000000	17.298709
584.000000	17.216699
585.000000	17.127628
586.000000	17.033606
587.000000	16.936080
588.000000	16.835996
589.000000	16.734819
590.000000	16.633855
591.000000	16.534904
592.000000	16.437975
593.000000	16.345173
594.000000	16.257150
595.000000	16.174953
596.000000	16.099242
597.000000	16.030373
598.000000	15.968550
599.000000	15.915273
600.000000	15.870340
601.000000	15.834112
602.000000	15.806670
603.000000	15.788210
604.000000	15.779794
605.000000	15.781054
606.000000	15.791906
607.000000	15.812616
608.000000	15.843052
609.000000	15.883334
610.000000	15.932567
611.000000	15.991389
612.000000	16.059411
613.000000	16.135997
614.000000	16.220784
615.000000	16.314014
616.000000	16.414676
617.000000	16.522178
618.000000	16.636544
619.000000	16.756696
620.000000	16.883086
621.000000	17.013555
622.000000	17.147840
623.000000	17.285140
624.000000	17.424940
625.000000	17.566237
626.000000	17.708526
627.000000	17.852481
628.000000	17.996936
629.000000	18.141518
630.000000	18.286291
631.000000	18.431663
632.000000	18.577080
633.000000	18.723614
634.000000	18.870296
635.000000	19.017944
636.000000	19.167478
637.000000	19.318950
638.000000	19.472352
639.000000	19.627310
640.000000	19.785840
641.000000	19.946864
642.000000	20.110872
643.000000	20.278348
644.000000	20.449087
645.000000	20.623438
646.000000	20.801112
647.000000	20.981598
648.000000	21.164937
649.000000	21.351357
650.000000	21.539915
651.000000	21.732185
652.000000	21.927533
653.000000	22.124928
654.000000	22.324520
655.000000	22.525372
656.000000	22.728015
657.000000	22.932127
658.000000	23.137657
659.000000	23.345650
660.000000	23.557344
661.000000	23.771243
662.000000	23.986485
663.000000	24.204202
664.000000	24.424399
665.000000	24.646393
666.000000	24.870757
667.000000	25.098010
668.000000	25.328741
669.000000	25.562720
670.000000	25.799370
671.000000	26.038351
672.000000	26.280020
673.000000	26.524682
674.000000	26.771396
675.000000	27.019017
676.000000	27.269134
677.000000	27.520939
678.000000	27.774257
679.000000	28.028387
680.000000	28.284401
681.000000	28.541004
682.000000	28.798549
683.000000	29.057853
684.000000	29.317489
685.000000	29.577272
686.000000	29.837286
687.000000	30.097977
688.000000	30.356743
689.000000	30.616577
690.000000	30.875779
691.000000	31.136197
692.000000	31.397140
693.000000	31.658910
694.000000	31.920623
695.000000	32.181475
696.000000	32.442638
697.000000	32.703516
698.000000	32.964038
699.000000	33.226276
700.000000	33.489314
701.000000	33.753321
702.000000	34.018778
703.000000	34.283782
704.000000	34.549637
705.000000	34.816210
706.000000	35.083432
707.000000	35.351566
708.000000	35.620897
709.000000	35.892193
710.000000	36.164426
711.000000	36.439108
712.000000	36.715582
713.000000	36.991472
714.000000	37.269254
715.000000	37.547358
716.000000	37.826668
717.000000	38.106025
718.000000	38.386122
719.000000	38.666735
720.000000	38.950012
721.000000	39.234938
722.000000	39.519122
723.000000	39.805910
724.000000	40.092850
725.000000	40.380493
726.000000	40.669407
727.000000	40.959099
728.000000	41.249223
729.000000	41.537909
730.000000	41.826778
731.000000	42.115806
732.000000	42.404671
733.000000	42.692668
734.000000	42.977884
735.000000	43.262606
736.000000	43.547056
737.000000	43.828225
738.000000	44.107345
739.000000	44.382259
740.000000	44.653485
741.000000	44.920219
742.000000	45.181563
743.000000	45.438484
744.000000	45.686320
745.000000	45.928016
746.000000	46.162729
747.000000	46.388529
748.000000	46.608160
749.000000	46.818297
750.000000	47.018602
751.000000	47.210215
752.000000	47.393011
753.000000	47.566371
754.000000	47.730932
755.000000	47.884368
756.000000	48.027040
757.000000	48.160706
758.000000	48.283559
759.000000	48.394980
760.000000	48.496140
761.000000	48.586702
762.000000	48.667801
763.000000	48.739003
764.000000	48.804007
765.000000	48.859710
766.000000	48.903522
767.000000	48.939483
768.000000	48.966876
769.000000	48.987412
770.000000	48.997829
771.000000	49.000543
772.000000	48.998526
773.000000	48.988351
774.000000	48.972569
775.000000	48.953563
776.000000	48.930583
777.000000	48.902485
778.000000	48.871038
779.000000	48.839772
780.000000	48.810272
781.000000	48.775132
782.000000	48.742768
783.000000	48.711669
784.000000	48.681604
785.000000	48.654873
786.000000	48.628903
787.000000	48.602371
788.000000	48.577708
789.000000	48.559212
790.000000	48.544409
791.000000	48.533141
792.000000	48.525551
793.000000	48.518381
794.000000	48.516623
795.000000	48.521472
796.000000	48.532338
797.000000	48.545888
798.000000	48.563352
799.000000	48.584386
800.000000	48.606444
801.000000	48.637884
802.000000	48.675127
803.000000	48.719356
804.000000	48.764775
805.000000	48.811829
806.000000	48.862068
807.000000	48.918080
808.000000	48.976952
809.000000	49.040744
810.000000	49.108602
811.000000	49.180775
812.000000	49.257172
813.000000	49.337036
814.000000	49.420443
815.000000	49.500037
816.000000	49.583610
817.000000	49.671900
818.000000	49.760470
819.000000	49.847555
820.000000	49.932222
821.000000	50.026747
822.000000	50.118487
823.000000	50.215211
824.000000	50.307894
825.000000	50.399444
826.000000	50.491466
827.000000	50.584996
828.000000	50.688461
829.000000	50.786821
830.000000	50.883643
831.000000	50.973526
832.000000	51.069843
833.000000	51.161495
834.000000	51.257009
835.000000	51.358219
836.000000	51.451409
837.000000	51.544248
838.000000	51.637987
839.000000	51.726550
840.000000	51.819221
841.000000	51.909271
842.000000	51.996575
843.000000	52.076035
844.000000	52.161399
845.000000	52.257227
846.000000	52.338051
847.000000	52.421244
848.000000	52.500839
849.000000	52.577255
850.000000	52.662713
851.000000	52.750678
852.000000	52.840922
853.000000	52.920260
854.000000	52.997780
855.000000	53.078477
856.000000	53.145212
857.000000	53.218136
858.000000	53.282433
859.000000	53.387922
860.000000	53.476038
861.000000	53.585683
862.000000	53.670799
863.000000	53.748601
864.000000	53.846665
865.000000	53.916431
866.000000	54.007690
867.000000	54.118389
868.000000	54.202521
869.000000	54.281088
870.000000	54.363665
871.000000	54.447886
872.000000	54.517184
873.000000	54.599923
874.000000	54.687667
875.000000	54.778095
876.000000	54.861299
877.000000	54.923340
878.000000	55.022839
879.000000	55.091584
880.000000	55.149181
881.000000	55.253328
882.000000	55.328160
883.000000	55.399412
884.000000	55.497727
885.000000	55.584016
886.000000	55.657755
887.000000	55.729144
888.000000	55.763099
889.000000	55.829699
890.000000	55.888957
891.000000	55.945658
892.000000	56.025619
893.000000	56.114062
894.000000	56.180133
895.000000	56.246996
896.000000	56.295237
897.000000	56.342047
898.000000	56.419531
899.000000	56.438048
900.000000	56.530874
901.000000	56.581780
902.000000	56.604995
903.000000	56.656063
904.000000	56.721219
905.000000	56.736186
906.000000	56.791958
907.000000	56.827118
908.000000	56.876641
909.000000	56.932876
910.000000	56.956659
911.000000	56.996853
912.000000	57.048572
913.000000	57.091495
914.000000	57.163374
915.000000	57.230432
916.000000	57.256876
917.000000	57.291953
918.000000	57.335847
919.000000	57.380527
920.000000	57.382912
921.000000	57.439135
922.000000	57.466269
923.000000	57.536055
924.000000	57.563879
925.000000	57.590607
926.000000	57.632175
927.000000	57.650204
928.000000	57.676047
929.000000	57.660287
930.000000	57.683735
931.000000	57.695479
932.000000	57.722558
933.000000	57.752240
934.000000	57.831867
935.000000	57.828351
936.000000	57.850580
937.000000	57.900674
938.000000	57.931110
939.000000	57.941920
940.000000	58.010541
941.000000	58.024324
942.000000	58.074411
943.000000	58.068941
944.000000	58.097952
945.000000	58.141862
946.000000	58.183144
947.000000	58.223267
948.000000	58.253902
949.000000	58.274346
950.000000	58.294140
951.000000	58.293695
952.000000	58.293452
953.000000	58.301497
954.000000	58.301549
955.000000	58.318147
956.000000	58.305452
957.000000	58.312408
958.000000	58.309057
959.000000	58.326727
960.000000	58.370463
961.000000	58.380443
962.000000	58.444709
963.000000	58.496554
964.000000	58.535674
965.000000	58.573334
966.000000	58.610591
967.000000	58.660534
968.000000	58.659630
969.000000	58.644585
970.000000	58.658236
971.000000	58.684729
972.000000	58.687443
973.000000	58.685424
974.000000	58.698648
975.000000	58.701377
976.000000	58.733952
977.000000	58.753119
978.000000	58.804369
979.000000	58.810641
980.000000	58.838546
981.000000	58.844174
982.000000	58.861001
983.000000	58.861570
984.000000	58.872183
985.000000	58.914396
986.000000	58.972248
987.000000	59.029640
988.000000	59.063095
989.000000	59.051409
990.000000	59.074465
991.000000	59.098068
992.000000	59.155962
993.000000	59.205290
994.000000	59.224210
995.000000	59.242487
996.000000	59.301818
997.000000	59.294290
998.000000	59.265004
999.000000	59.284455
1000.000000	59.278886
1001.000000	59.265716
1002.000000	59.240484
1003.000000	59.238868
1004.000000	59.236080
1005.000000	59.245756
1006.000000	59.245747
1007.000000	59.248876
1008.000000	59.300263
1009.000000	59.333741
1010.000000	59.360034
1011.000000	59.360870
1012.000000	59.355880
1013.000000	59.336471
1014.000000	59.349180
1015.000000	59.364745
1016.000000	59.401577
1017.000000	59.397822
1018.000000	59.411474
1019.000000	59.421676
1020.000000	59.391975
1021.000000	59.374482
1022.000000	59.384849
1023.000000	59.389119
1024.000000	59.421134
1025.000000	59.441224
1026.000000	59.423275
1027.000000	59.380595
1028.000000	59.369326
1029.000000	59.356518
1030.000000	59.357214
1031.000000	59.339432
1032.000000	59.322234
1033.000000	59.320957
1034.000000	59.311873
1035.000000	59.314151
1036.000000	59.335664
1037.000000	59.375029
1038.000000	59.388934
1039.000000	59.404555
1040.000000	59.432984
1041.000000	59.426782
1042.000000	59.430771
1043.000000	59.446775
1044.000000	59.457630
1045.000000	59.457638
1046.000000	59.456308
1047.000000	59.477393
1048.000000	59.510940
1049.000000	59.481148
1050.000000	59.440051
1051.000000	59.411492
1052.000000	59.416420
1053.000000	59.402470
1054.000000	59.381429
1055.000000	59.397542
1056.000000	59.396075
1057.000000	59.379101
1058.000000	59.388715
1059.000000	59.391748
1060.000000	59.428647
1061.000000	59.456866
1062.000000	59.480587
1063.000000	59.479031
1064.000000	59.507442
1065.000000	59.501111
1066.000000	59.524807
1067.000000	59.571967
1068.000000	59.587948
1069.000000	59.598765
1070.000000	59.588733
1071.000000	59.575731
1072.000000	59.544874
1073.000000	59.529110
1074.000000	59.538637
1075.000000	59.547129
1076.000000	59.553653
1077.000000	59.544144
1078.000000	59.509161
1079.000000	59.475264
1080.000000	59.462377
1081.000000	59.449790
1082.000000	59.422039
1083.000000	59.426855
1084.000000	59.442537
1085.000000	59.444639
1086.000000	59.459539
1087.000000	59.447687
1088.000000	59.470285
1089.000000	59.496634
1090.000000	59.455771
1091.000000	59.445927
1092.000000	59.440532
1093.000000	59.421862
1094.000000	59.406375
1095.000000	59.380086
1096.000000	59.364143
1097.000000	59.363674
1098.000000	59.376104
1099.000000	59.392050
1100.000000	59.364178
1101.000000	59.324223
1102.000000	59.291393
1103.000000	59.263458
1104.000000	59.263299
1105.000000	59.246700
1106.000000	59.269654
1107.000000	59.288002
1108.000000	59.272017
1109.000000	59.255143
1110.000000	59.224863
1111.000000	59.240720
1112.000000	59.212277
1113.000000	59.192172
1114.000000	59.203777
1115.000000	59.204437
1116.000000	59.194288
1117.000000	59.179958
1118.000000	59.179082
1119.000000	59.165431
1120.000000	59.171384
1121.000000	59.146672
1122.000000	59.160590
1123.000000	59.169995
1124.000000	59.193334
1125.000000	59.231354
1126.000000	59.233809
1127.000000	59.246503
1128.000000	59.263018
1129.000000	59.281789
1130.000000	59.258712
1131.000000	59.281319
1132.000000	59.251607
1133.000000	59.246666
1134.000000	59.276498
1135.000000	59.296777
1136.000000	59.361430
1137.000000	59.358175
1138.000000	59.383896
1139.000000	59.366762
1140.000000	59.346009
1141.000000	59.292385
1142.000000	59.250661
1143.000000	59.262918
1144.000000	59.276019
1145.000000	59.261881
1146.000000	59.242707
1147.000000	59.268560
1148.000000	59.281242
1149.000000	59.255547
1150.000000	59.238504
1151.000000	59.222946
1152.000000	59.250632
1153.000000	59.196294
1154.000000	59.188180
1155.000000	59.195982
1156.000000	59.190960
1157.000000	59.166599
1158.000000	59.097308
1159.000000	59.028676
1160.000000	58.994072
1161.000000	58.981398
1162.000000	58.915207
1163.000000	58.868992
1164.000000	58.798245
1165.000000	58.773950
1166.000000	58.731980
1167.000000	58.739052
1168.000000	58.667529
1169.000000	58.548663
1170.000000	58.494003
1171.000000	58.407608
1172.000000	58.367600
1173.000000	58.357428
1174.000000	58.360305
1175.000000	58.354831
1176.000000	58.331780
1177.000000	58.324488
1178.000000	58.287082
1179.000000	58.232431
1180.000000	58.198318
1181.000000	58.179653
1182.000000	58.134641
1183.000000	58.101199
1184.000000	58.105292
1185.000000	58.069773
1186.000000	58.035504
1187.000000	57.997958
1188.000000	57.992954
1189.000000	57.947453
1190.000000	57.903660
1191.000000	57.889626
1192.000000	57.869614
1193.000000	57.856734
1194.000000	57.828250
1195.000000	57.792178
1196.000000	57.743947
1197.000000	57.734503
1198.000000	57.742549
1199.000000	57.793509
1200.000000	57.818553
1201.000000	57.808680
1202.000000	57.797128
1203.000000	57.824839
1204.000000	57.848038
1205.000000	57.849778
1206.000000	57.877406
1207.000000	57.866281
1208.000000	57.806842
1209.000000	57.771998
1210.000000	57.765320
1211.000000	57.793090
1212.000000	57.773653
1213.000000	57.804010
1214.000000	57.813649
1215.000000	57.839203
1216.000000	57.818731
1217.000000	57.824135
1218.000000	57.814709
1219.000000	57.787743
1220.000000	57.791307
1221.000000	57.816455
1222.000000	57.828657
1223.000000	57.790443
1224.000000	57.787127
1225.000000	57.766861
1226.000000	57.762049
1227.000000	57.791761
1228.000000	57.817638
1229.000000	57.818521
1230.000000	57.834311
1231.000000	57.878246
1232.000000	57.893618
1233.000000	57.866857
1234.000000	57.816085
1235.000000	57.768659
1236.000000	57.763561
1237.000000	57.744533
1238.000000	57.763913
1239.000000	57.764252
1240.000000	57.793880
1241.000000	57.790859
1242.000000	57.802628
1243.000000	57.842509
1244.000000	57.855405
1245.000000	57.859280
1246.000000	57.867277
1247.000000	57.908822
1248.000000	57.912372
1249.000000	57.919357
1250.000000	57.903310
1251.000000	57.922050
1252.000000	57.920545
1253.000000	57.896888
1254.000000	57.885505
1255.000000	57.905714
1256.000000	57.899264
1257.000000	57.869781
1258.000000	57.892698
1259.000000	57.933657
1260.000000	57.944720
1261.000000	57.900724
1262.000000	57.842774
1263.000000	57.837808
1264.000000	57.844926
1265.000000	57.838857
1266.000000	57.816590
1267.000000	57.798588
1268.000000	57.804941
1269.000000	57.823023
1270.000000	57.867481
1271.000000	57.895617
1272.000000	57.892873
1273.000000	57.869809
1274.000000	57.869211
1275.000000	57.867238
1276.000000	57.840121
1277.000000	57.839477
1278.000000	57.828097
1279.000000	57.832402
1280.000000	57.848090
1281.000000	57.818330
1282.000000	57.761686
1283.000000	57.749444
1284.000000	57.745601
1285.000000	57.745043
1286.000000	57.719482
1287.000000	57.716941
1288.000000	57.741515
1289.000000	57.747048
1290.000000	57.730491
1291.000000	57.740787
1292.000000	57.755214
1293.000000	57.752588
1294.000000	57.706051
1295.000000	57.705398
1296.000000	57.726304
1297.000000	57.742616
1298.000000	57.746465
1299.000000	57.754054
1300.000000	57.721556
1301.000000	57.701957
1302.000000	57.734356
1303.000000	57.749548
1304.000000	57.767688
1305.000000	57.738118
1306.000000	57.716241
1307.000000	57.736251
1308.000000	57.744889
1309.000000	57.757579
1310.000000	57.731269
1311.000000	57.722276
1312.000000	57.724751
1313.000000	57.726045
1314.000000	57.720159
1315.000000	57.719786
1316.000000	57.719191
1317.000000	57.721432
1318.000000	57.688979
1319.000000	57.668125
1320.000000	57.676481
1321.000000	57.680707
1322.000000	57.664017
1323.000000	57.657387
1324.000000	57.651080
1325.000000	57.610353
1326.000000	57.575804
1327.000000	57.569146
1328.000000	57.535901
1329.000000	57.531402
1330.000000	57.536211
1331.000000	57.533188
1332.000000	57.551745
1333.000000	57.550898
1334.000000	57.552939
1335.000000	57.560804
1336.000000	57.548963
1337.000000	57.534726
1338.000000	57.528643
1339.000000	57.488776
1340.000000	57.458411
1341.000000	57.434206
1342.000000	57.394954
1343.000000	57.380379
1344.000000	57.336273
1345.000000	57.347068
1346.000000	57.332876
1347.000000	57.264755
1348.000000	57.215984
1349.000000	57.167964
1350.000000	57.109399
1351.000000	57.060773
1352.000000	57.041305
1353.000000	57.005178
1354.000000	56.983353
1355.000000	56.927804
1356.000000	56.899525
1357.000000	56.930840
1358.000000	56.837495
1359.000000	56.765817
1360.000000	56.757583
1361.000000	56.805674
1362.000000	56.865006
1363.000000	56.872753
1364.000000	56.816970
1365.000000	56.720809
1366.000000	56.676087
1367.000000	56.634122
1368.000000	56.548107
1369.000000	56.537154
1370.000000	56.595496
1371.000000	56.639926
1372.000000	56.660273
1373.000000	56.579343
1374.000000	56.549892
1375.000000	56.530634
1376.000000	56.542219
1377.000000	56.545220
1378.000000	56.432904
1379.000000	56.319703
1380.000000	55.932491
1381.000000	55.768677
1382.000000	55.657603
1383.000000	55.635398
1384.000000	55.655759
1385.000000	55.610737
1386.000000	55.564076
1387.000000	55.640119
1388.000000	55.670816
1389.000000	55.685420
1390.000000	55.693408
1391.000000	55.692967
1392.000000	55.540288
1393.000000	55.564075
1394.000000	55.616500
1395.000000	55.513327
1396.000000	55.199091
1397.000000	54.990383
1398.000000	54.858611
1399.000000	54.804349
1400.000000	54.756502
1401.000000	54.618492
1402.000000	54.553452
1403.000000	54.510751
1404.000000	54.460997
1405.000000	54.338347
1406.000000	54.210346
1407.000000	54.023468
1408.000000	53.978165
1409.000000	53.877432
1410.000000	53.758918
1411.000000	53.621720
1412.000000	53.461344
1413.000000	53.498967
1414.000000	53.541403
1415.000000	53.727214
1416.000000	53.743807
1417.000000	53.776847
1418.000000	53.762746
1419.000000	53.648876
1420.000000	53.564119
1421.000000	53.504063
1422.000000	53.289524
1423.000000	53.170647
1424.000000	53.036586
1425.000000	52.899633
1426.000000	52.734403
1427.000000	52.698064
1428.000000	52.573963
1429.000000	52.422643
1430.000000	52.387888
1431.000000	52.482700
1432.000000	52.418306
1433.000000	52.370712
1434.000000	52.296396
1435.000000	52.239450
1436.000000	52.263414
1437.000000	52.160381
1438.000000	52.089101
1439.000000	51.945287
1440.000000	51.803012
1441.000000	51.657707
1442.000000	51.633960
1443.000000	51.549393
1444.000000	51.486695
1445.000000	51.493563
1446.000000	51.428695
1447.000000	51.376346
1448.000000	51.266605
1449.000000	51.184377
1450.000000	51.204852
1451.000000	51.133759
1452.000000	51.048379
1453.000000	50.904203
1454.000000	50.806773
1455.000000	50.762812
1456.000000	50.702353
1457.000000	50.639504
1458.000000	50.577010
1459.000000	50.497973
1460.000000	50.411950
1461.000000	50.381017
1462.000000	50.338892
1463.000000	50.301196
1464.000000	50.236055
1465.000000	50.152110
1466.000000	50.109973
1467.000000	50.083109
1468.000000	50.055542
1469.000000	50.043548
1470.000000	50.000897
1471.000000	49.899818
1472.000000	49.845154
1473.000000	49.783762
1474.000000	49.704121
1475.000000	49.652327
1476.000000	49.643346
1477.000000	49.584023
1478.000000	49.512912
1479.000000	49.470602
1480.000000	49.387718
1481.000000	49.338362
1482.000000	49.297289
1483.000000	49.233907
1484.000000	49.144035
1485.000000	49.089267
1486.000000	49.071347
1487.000000	49.043851
1488.000000	48.990888
1489.000000	48.962777
1490.000000	48.928737
1491.000000	48.888741
1492.000000	48.876874
1493.000000	48.822053
1494.000000	48.795098
1495.000000	48.818902
1496.000000	48.791439
1497.000000	48.764307
1498.000000	48.751897
1499.000000	48.734446
1500.000000	48.731152
1501.000000	48.697867
1502.000000	48.648485
1503.000000	48.623849
1504.000000	48.614106
1505.000000	48.595194
1506.000000	48.605770
1507.000000	48.571424
1508.000000	48.538518
1509.000000	48.539202
1510.000000	48.532110
1511.000000	48.497662
1512.000000	48.467223
1513.000000	48.477067
1514.000000	48.452039
1515.000000	48.427169
1516.000000	48.417004
1517.000000	48.416621
1518.000000	48.432981
1519.000000	48.474699
1520.000000	48.458486
1521.000000	48.455723
1522.000000	48.446467
1523.000000	48.458636
1524.000000	48.468508
1525.000000	48.485243
1526.000000	48.494656
1527.000000	48.513009
1528.000000	48.550116
1529.000000	48.591543
1530.000000	48.599735
1531.000000	48.620239
1532.000000	48.628450
1533.000000	48.617720
1534.000000	48.649244
1535.000000	48.676116
1536.000000	48.698849
1537.000000	48.741141
1538.000000	48.761755
1539.000000	48.754146
1540.000000	48.774651
1541.000000	48.799521
1542.000000	48.846222
1543.000000	48.876925
1544.000000	48.915672
1545.000000	48.960691
1546.000000	48.996520
1547.000000	49.031923
1548.000000	49.050659
1549.000000	49.090457
1550.000000	49.104676
1551.000000	49.117310
1552.000000	49.156371
1553.000000	49.167179
1554.000000	49.169517
1555.000000	49.187669
1556.000000	49.202366
1557.000000	49.216858
1558.000000	49.235270
1559.000000	49.249012
1560.000000	49.232870
1561.000000	49.227435
1562.000000	49.222640
1563.000000	49.215860
1564.000000	49.212060
1565.000000	49.203319
1566.000000	49.212005
1567.000000	49.246158
1568.000000	49.279567
1569.000000	49.235115
1570.000000	49.219589
1571.000000	49.218682
1572.000000	49.236475
1573.000000	49.238606
1574.000000	49.233397
1575.000000	49.227624
1576.000000	49.223761
1577.000000	49.221153
1578.000000	49.218511
1579.000000	49.220656
1580.000000	49.230843
1581.000000	49.262851
1582.000000	49.254727
1583.000000	49.253202
1584.000000	49.230979
1585.000000	49.251282
1586.000000	49.289906
1587.000000	49.324721
1588.000000	49.343099
1589.000000	49.358008
1590.000000	49.364573
1591.000000	49.358429
1592.000000	49.369171
1593.000000	49.388336
1594.000000	49.382081
1595.000000	49.410068
1596.000000	49.426455
1597.000000	49.433853
1598.000000	49.430302
1599.000000	49.442094
1600.000000	49.492415
1601.000000	49.507717
1602.000000	49.465782
1603.000000	49.479759
1604.000000	49.535327
1605.000000	49.561164
1606.000000	49.593838
1607.000000	49.626255
1608.000000	49.656792
1609.000000	49.692585
1610.000000	49.701899
1611.000000	49.724679
1612.000000	49.736729
1613.000000	49.744128
1614.000000	49.696660
1615.000000	49.710349
1616.000000	49.723724
1617.000000	49.753372
1618.000000	49.764625
1619.000000	49.788329
1620.000000	49.789604
1621.000000	49.788216
1622.000000	49.770694
1623.000000	49.744908
1624.000000	49.695379
1625.000000	49.702144
1626.000000	49.729624
1627.000000	49.763285
1628.000000	49.778812
1629.000000	49.808670
1630.000000	49.834281
1631.000000	49.834539
1632.000000	49.847844
1633.000000	49.843535
1634.000000	49.840123
1635.000000	49.837284
1636.000000	49.842449
1637.000000	49.918591
1638.000000	49.923656
1639.000000	49.906576
1640.000000	49.915179
1641.000000	49.915063
1642.000000	49.879502
1643.000000	49.871928
1644.000000	49.879523
1645.000000	49.887724
1646.000000	49.865722
1647.000000	49.861481
1648.000000	49.927971
1649.000000	50.000318
1650.000000	50.030648
1651.000000	50.033049
1652.000000	50.049735
1653.000000	50.110860
1654.000000	50.159491
1655.000000	50.185288
1656.000000	50.180455
1657.000000	50.178441
1658.000000	50.213774
1659.000000	50.244939
1660.000000	50.228611
1661.000000	50.220690
1662.000000	50.210134
1663.000000	50.203494
1664.000000	50.168734
1665.000000	50.153914
1666.000000	50.153477
1667.000000	50.142573
1668.000000	50.165091
1669.000000	50.131467
1670.000000	50.078180
1671.000000	50.031297
1672.000000	49.933101
1673.000000	49.874839
1674.000000	49.878458
1675.000000	49.819318
1676.000000	49.803589
1677.000000	49.795642
1678.000000	49.762713
1679.000000	49.691750
1680.000000	49.642471
1681.000000	49.597650
1682.000000	49.542629
1683.000000	49.409445
1684.000000	49.338342
1685.000000	49.260348
1686.000000	49.228995
1687.000000	49.151830
1688.000000	49.040492
1689.000000	48.919248
1690.000000	48.851349
1691.000000	48.803498
1692.000000	48.732093
1693.000000	48.669812
1694.000000	48.606825
1695.000000	48.583498
1696.000000	48.519478
1697.000000	48.422092
1698.000000	48.371284
1699.000000	48.345278
1700.000000	48.299495
1701.000000	48.253567
1702.000000	48.184439
1703.000000	48.092784
1704.000000	48.037753
1705.000000	47.967404
1706.000000	47.904991
1707.000000	47.886027
1708.000000	47.843959
1709.000000	47.767430
1710.000000	47.730457
1711.000000	47.647945
1712.000000	47.583705
1713.000000	47.558267
1714.000000	47.502182
1715.000000	47.471695
1716.000000	47.415336
1717.000000	47.385867
1718.000000	47.380062
1719.000000	47.318402
1720.000000	47.264351
1721.000000	47.172860
1722.000000	47.110208
1723.000000	47.061403
1724.000000	47.025023
1725.000000	46.949587
1726.000000	46.862792
1727.000000	46.790973
1728.000000	46.701143
1729.000000	46.650728
1730.000000	46.552955
1731.000000	46.514867
1732.000000	46.488702
1733.000000	46.410884
1734.000000	46.377220
1735.000000	46.296142
1736.000000	46.249331
1737.000000	46.214352
1738.000000	46.185920
1739.000000	46.175697
1740.000000	46.145244
1741.000000	46.112362
1742.000000	46.071258
1743.000000	46.056417
1744.000000	46.062997
1745.000000	46.039684
1746.000000	46.050867
1747.000000	46.059742
1748.000000	45.998041
1749.000000	45.995366
1750.000000	45.988737
1751.000000	46.001115
1752.000000	45.986748
1753.000000	45.985392
1754.000000	45.983455
1755.000000	45.960730
1756.000000	45.975559
1757.000000	46.008245
1758.000000	46.023990
1759.000000	46.084667
1760.000000	46.166047
1761.000000	46.201833
1762.000000	46.229321
1763.000000	46.272610
1764.000000	46.299088
1765.000000	46.340829
1766.000000	46.341504
1767.000000	46.349581
1768.000000	46.365226
1769.000000	46.337115
1770.000000	46.369382
1771.000000	46.388934
1772.000000	46.394721
1773.000000	46.391083
1774.000000	46.425502
1775.000000	46.487575
1776.000000	46.532586
1777.000000	46.588267
1778.000000	46.608600
1779.000000	46.587391
1780.000000	46.610637
1781.000000	46.612811
1782.000000	46.617683
1783.000000	46.659254
1784.000000	46.731253
1785.000000	46.771813
1786.000000	46.802253
1787.000000	46.829492
1788.000000	46.860639
1789.000000	46.894528
1790.000000	46.948922
1791.000000	46.964921
1792.000000	46.950834
1793.000000	46.949299
1794.000000	46.927922
1795.000000	46.905763
1796.000000	46.936272
1797.000000	46.938834
1798.000000	46.927440
1799.000000	46.955606
1800.000000	46.980388
1801.000000	46.994053
1802.000000	46.999498
1803.000000	47.010690
1804.000000	47.034020
1805.000000	47.065467
1806.000000	47.099692
1807.000000	47.129301
1808.000000	47.171161
1809.000000	47.177443
1810.000000	47.162120
1811.000000	47.083889
1812.000000	46.966934
1813.000000	46.905802
1814.000000	46.921808
1815.000000	46.973168
1816.000000	46.954212
1817.000000	46.943282
1818.000000	46.996416
1819.000000	46.995546
1820.000000	47.060828
1821.000000	47.071548
1822.000000	47.081801
1823.000000	47.060645
1824.000000	47.063866
1825.000000	47.058821
1826.000000	47.102001
1827.000000	47.112822
1828.000000	47.116343
1829.000000	47.108892
1830.000000	47.109280
1831.000000	47.125603
1832.000000	47.136426
1833.000000	47.086874
1834.000000	47.064594
1835.000000	47.042504
1836.000000	47.087905
1837.000000	47.152004
1838.000000	47.174609
1839.000000	47.100233
1840.000000	47.028333
1841.000000	47.016205
1842.000000	47.038695
1843.000000	47.064615
1844.000000	47.018645
1845.000000	46.992654
1846.000000	47.047653
1847.000000	47.155948
1848.000000	47.228671
1849.000000	47.225170
1850.000000	47.187523
1851.000000	47.168057
1852.000000	47.145074
1853.000000	47.068938
1854.000000	47.021898
1855.000000	46.972599
1856.000000	47.109375
1857.000000	47.176098
1858.000000	47.198538
1859.000000	47.270124
1860.000000	47.273512
1861.000000	47.236880
1862.000000	47.267619
1863.000000	47.283989
1864.000000	47.226666
1865.000000	47.143226
1866.000000	47.093215
1867.000000	47.101642
1868.000000	47.154401
1869.000000	47.164356
1870.000000	47.151747
1871.000000	47.069908
1872.000000	47.037542
1873.000000	47.048441
1874.000000	47.090795
1875.000000	47.114394
1876.000000	47.051845
1877.000000	46.992468
1878.000000	46.899596
1879.000000	46.844903
1880.000000	46.843397
1881.000000	46.819938
1882.000000	46.730069
1883.000000	46.690143
1884.000000	46.655338
1885.000000	46.598668
1886.000000	46.564076
1887.000000	46.505268
1888.000000	46.456727
1889.000000	46.406234
1890.000000	46.280555
1891.000000	46.035711
1892.000000	45.870798
1893.000000	45.748799
1894.000000	45.536796
1895.000000	45.384098
1896.000000	45.206245
1897.000000	44.996183
1898.000000	44.826572
1899.000000	44.755933
1900.000000	44.624748
1901.000000	44.402499
1902.000000	44.124982
1903.000000	43.907199
1904.000000	43.722653
1905.000000	43.544300
1906.000000	43.311160
1907.000000	43.024647
1908.000000	42.732469
1909.000000	42.490929
1910.000000	42.267070
1911.000000	42.022195
1912.000000	41.786496
1913.000000	41.583441
1914.000000	41.372001
1915.000000	41.115264
1916.000000	40.828970
1917.000000	40.587958
1918.000000	40.257826
1919.000000	40.019387
1920.000000	39.719414
1921.000000	39.439896
1922.000000	39.217579
1923.000000	38.925380
1924.000000	38.667629
1925.000000	38.370798
1926.000000	38.111873
1927.000000	37.873188
1928.000000	37.569602
1929.000000	37.379727
1930.000000	37.195452
1931.000000	37.023580
1932.000000	36.859488
1933.000000	36.659055
1934.000000	36.446198
1935.000000	36.286238
1936.000000	36.176445
1937.000000	36.121088
1938.000000	35.987951
1939.000000	35.776215
1940.000000	35.648704
1941.000000	35.553131
1942.000000	35.445509
1943.000000	35.340354
1944.000000	35.253695
1945.000000	35.154702
1946.000000	35.098719
1947.000000	35.016334
1948.000000	34.936923
1949.000000	34.865861
1950.000000	34.790735
1951.000000	34.746988
1952.000000	34.725404
1953.000000	34.753610
1954.000000	34.690962
1955.000000	34.705428
1956.000000	34.739038
1957.000000	34.709741
1958.000000	34.745481
1959.000000	34.758314
1960.000000	34.815899
1961.000000	34.846741
1962.000000	34.848834
1963.000000	34.899445
1964.000000	34.886692
1965.000000	34.872950
1966.000000	34.888506
1967.000000	34.932876
1968.000000	34.992019
1969.000000	35.009307
1970.000000	35.045087
1971.000000	35.062368
1972.000000	35.081131
1973.000000	35.174168
1974.000000	35.252993
1975.000000	35.283496
1976.000000	35.368598
1977.000000	35.437695
1978.000000	35.527676
1979.000000	35.601541
1980.000000	35.667625
1981.000000	35.697549
1982.000000	35.754228
1983.000000	35.798477
1984.000000	35.846033
1985.000000	35.930120
1986.000000	36.008038
1987.000000	36.063227
1988.000000	36.099929
1989.000000	36.174892
1990.000000	36.247053
1991.000000	36.304044
1992.000000	36.344983
1993.000000	36.390032
1994.000000	36.409596
1995.000000	36.459513
1996.000000	36.517250
1997.000000	36.557137
1998.000000	36.629589
1999.000000	36.710894
2000.000000	36.781028
