PE UV       SUBTECH     SPECTRUM    ASCII       PEDS        4.00        
   -1
MACRASPIS.SP-TX3.ASC
23/11/30
13:55:33.00
23/11/30
13:55:33.00
Vinicio Soto Monge
MACRASPIS ?
250,000000
1
Lambda 1050
1050L1511233
PerkinElmer UV WinLab 6.3.2.0749 / 2.02.05 Lambda 900 UV/VIS/NIR, Aug  7 2015 09:38:08

0
0
3350/servo 860,8/2
0
0
UV/VIS
1
1
1
DoubleDePol,CommonBeamDepol,RBeamAtt,SBeamAtt,60mm sphere, WB InGaAs Detector
0
0
0
0
Program
Program
3350/servo 860,8/2
3350/0,4 860,8/0,4
3350/0,4 860,8/0,4
0
20.00
 
 
 
0
 
860,8
319,2
860,8
Front
100
on
S:100 R:100
0
0
0
0
 
0
 
 
 
0
 
 
0
0
0
0
0
 
 
 
 
0
0


0
0
#HDR
-1
-1
#GR
nm
%R
1.0
0.0
2200,000000
-1,000000
1951
8
80,438291
0,396740
#DATA
284.000000	7.211898
285.000000	7.181291
286.000000	7.150131
287.000000	7.122900
288.000000	7.097769
289.000000	7.074597
290.000000	7.052696
291.000000	7.031213
292.000000	7.011785
293.000000	6.991951
294.000000	6.976658
295.000000	6.958912
296.000000	6.941532
297.000000	6.927951
298.000000	6.915136
299.000000	6.902973
300.000000	6.889173
301.000000	6.878704
302.000000	6.870581
303.000000	6.859834
304.000000	6.851890
305.000000	6.842431
306.000000	6.831649
307.000000	6.821463
308.000000	6.811839
309.000000	6.801029
310.000000	6.790172
311.000000	6.779268
312.000000	6.769089
313.000000	6.759716
314.000000	6.750555
315.000000	6.739855
316.000000	6.731099
317.000000	6.721194
318.000000	6.707078
319.000000	6.691443
320.000000	6.676176
321.000000	6.664480
322.000000	6.652946
323.000000	6.634307
324.000000	6.618288
325.000000	6.600824
326.000000	6.581464
327.000000	6.567796
328.000000	6.551205
329.000000	6.530364
330.000000	6.512448
331.000000	6.493207
332.000000	6.471571
333.000000	6.447641
334.000000	6.427394
335.000000	6.409278
336.000000	6.391619
337.000000	6.372912
338.000000	6.355700
339.000000	6.333483
340.000000	6.311036
341.000000	6.290438
342.000000	6.271631
343.000000	6.252738
344.000000	6.234536
345.000000	6.219922
346.000000	6.204295
347.000000	6.186573
348.000000	6.168198
349.000000	6.151921
350.000000	6.135565
351.000000	6.119630
352.000000	6.102126
353.000000	6.090379
354.000000	6.078171
355.000000	6.066922
356.000000	6.052254
357.000000	6.034674
358.000000	6.022477
359.000000	6.010853
360.000000	5.999494
361.000000	5.989534
362.000000	5.972793
363.000000	5.958527
364.000000	5.947324
365.000000	5.935421
366.000000	5.924786
367.000000	5.915469
368.000000	5.904827
369.000000	5.890997
370.000000	5.876429
371.000000	5.860661
372.000000	5.848555
373.000000	5.836404
374.000000	5.823543
375.000000	5.813712
376.000000	5.802847
377.000000	5.787997
378.000000	5.772232
379.000000	5.757845
380.000000	5.741361
381.000000	5.725684
382.000000	5.710988
383.000000	5.696529
384.000000	5.680154
385.000000	5.664324
386.000000	5.648171
387.000000	5.632679
388.000000	5.616315
389.000000	5.601167
390.000000	5.585078
391.000000	5.569104
392.000000	5.554530
393.000000	5.541052
394.000000	5.525014
395.000000	5.509338
396.000000	5.494575
397.000000	5.481394
398.000000	5.467434
399.000000	5.452793
400.000000	5.439218
401.000000	5.424709
402.000000	5.410662
403.000000	5.398228
404.000000	5.386841
405.000000	5.376036
406.000000	5.364148
407.000000	5.349702
408.000000	5.336572
409.000000	5.326030
410.000000	5.314580
411.000000	5.303811
412.000000	5.294906
413.000000	5.286296
414.000000	5.277768
415.000000	5.269646
416.000000	5.261753
417.000000	5.254152
418.000000	5.246841
419.000000	5.239672
420.000000	5.232891
421.000000	5.226146
422.000000	5.219809
423.000000	5.213701
424.000000	5.207871
425.000000	5.201940
426.000000	5.196261
427.000000	5.191190
428.000000	5.185965
429.000000	5.180880
430.000000	5.175577
431.000000	5.170556
432.000000	5.165773
433.000000	5.161373
434.000000	5.156780
435.000000	5.152078
436.000000	5.147926
437.000000	5.143859
438.000000	5.139705
439.000000	5.135416
440.000000	5.131387
441.000000	5.127677
442.000000	5.124172
443.000000	5.120626
444.000000	5.117267
445.000000	5.113936
446.000000	5.110424
447.000000	5.107159
448.000000	5.104076
449.000000	5.101380
450.000000	5.098453
451.000000	5.095211
452.000000	5.092153
453.000000	5.089180
454.000000	5.086254
455.000000	5.083065
456.000000	5.079651
457.000000	5.076307
458.000000	5.073105
459.000000	5.070127
460.000000	5.067090
461.000000	5.064157
462.000000	5.061111
463.000000	5.058123
464.000000	5.055284
465.000000	5.052625
466.000000	5.050028
467.000000	5.047419
468.000000	5.044660
469.000000	5.042333
470.000000	5.040073
471.000000	5.037416
472.000000	5.035166
473.000000	5.033264
474.000000	5.031547
475.000000	5.029848
476.000000	5.028334
477.000000	5.027010
478.000000	5.026053
479.000000	5.025444
480.000000	5.024925
481.000000	5.024636
482.000000	5.024586
483.000000	5.025113
484.000000	5.026012
485.000000	5.027380
486.000000	5.029478
487.000000	5.031892
488.000000	5.034897
489.000000	5.038536
490.000000	5.042935
491.000000	5.048121
492.000000	5.053581
493.000000	5.059513
494.000000	5.066009
495.000000	5.073181
496.000000	5.081209
497.000000	5.089793
498.000000	5.099126
499.000000	5.109354
500.000000	5.120321
501.000000	5.131594
502.000000	5.143556
503.000000	5.156313
504.000000	5.169638
505.000000	5.183800
506.000000	5.199110
507.000000	5.215060
508.000000	5.231849
509.000000	5.249356
510.000000	5.267662
511.000000	5.286850
512.000000	5.306992
513.000000	5.328341
514.000000	5.351014
515.000000	5.374933
516.000000	5.400031
517.000000	5.426385
518.000000	5.454294
519.000000	5.483388
520.000000	5.513999
521.000000	5.546346
522.000000	5.580463
523.000000	5.616351
524.000000	5.653978
525.000000	5.693519
526.000000	5.735021
527.000000	5.778886
528.000000	5.825241
529.000000	5.873958
530.000000	5.925204
531.000000	5.979257
532.000000	6.036516
533.000000	6.097059
534.000000	6.161273
535.000000	6.229162
536.000000	6.301291
537.000000	6.377839
538.000000	6.459163
539.000000	6.545354
540.000000	6.636397
541.000000	6.732747
542.000000	6.834959
543.000000	6.943084
544.000000	7.057819
545.000000	7.178889
546.000000	7.306321
547.000000	7.440825
548.000000	7.582294
549.000000	7.730939
550.000000	7.887082
551.000000	8.051073
552.000000	8.223225
553.000000	8.403472
554.000000	8.591601
555.000000	8.787737
556.000000	8.991439
557.000000	9.202956
558.000000	9.422192
559.000000	9.649186
560.000000	9.885686
561.000000	10.129251
562.000000	10.379382
563.000000	10.635754
564.000000	10.898196
565.000000	11.166248
566.000000	11.439249
567.000000	11.716662
568.000000	11.997581
569.000000	12.280853
570.000000	12.566790
571.000000	12.854683
572.000000	13.143560
573.000000	13.432573
574.000000	13.722112
575.000000	14.011107
576.000000	14.298431
577.000000	14.583381
578.000000	14.865447
579.000000	15.142968
580.000000	15.415014
581.000000	15.680629
582.000000	15.938466
583.000000	16.187948
584.000000	16.427847
585.000000	16.656676
586.000000	16.873498
587.000000	17.077714
588.000000	17.267426
589.000000	17.442562
590.000000	17.602114
591.000000	17.745327
592.000000	17.872080
593.000000	17.982122
594.000000	18.075158
595.000000	18.149086
596.000000	18.206058
597.000000	18.246024
598.000000	18.269287
599.000000	18.275685
600.000000	18.264743
601.000000	18.237627
602.000000	18.194080
603.000000	18.134579
604.000000	18.060201
605.000000	17.970864
606.000000	17.866880
607.000000	17.748897
608.000000	17.617784
609.000000	17.473305
610.000000	17.315940
611.000000	17.146427
612.000000	16.964709
613.000000	16.771344
614.000000	16.567563
615.000000	16.354703
616.000000	16.132745
617.000000	15.902691
618.000000	15.665432
619.000000	15.421911
620.000000	15.173563
621.000000	14.920733
622.000000	14.663591
623.000000	14.404313
624.000000	14.143747
625.000000	13.882357
626.000000	13.621352
627.000000	13.360669
628.000000	13.101065
629.000000	12.842708
630.000000	12.585812
631.000000	12.330809
632.000000	12.078342
633.000000	11.828460
634.000000	11.581748
635.000000	11.338814
636.000000	11.099318
637.000000	10.864536
638.000000	10.634460
639.000000	10.408822
640.000000	10.187820
641.000000	9.971715
642.000000	9.761120
643.000000	9.555248
644.000000	9.354682
645.000000	9.159777
646.000000	8.970781
647.000000	8.787586
648.000000	8.610243
649.000000	8.439136
650.000000	8.273725
651.000000	8.114994
652.000000	7.963079
653.000000	7.817413
654.000000	7.678087
655.000000	7.545244
656.000000	7.419139
657.000000	7.300094
658.000000	7.187376
659.000000	7.081125
660.000000	6.981280
661.000000	6.887312
662.000000	6.799577
663.000000	6.717737
664.000000	6.641409
665.000000	6.570845
666.000000	6.505737
667.000000	6.446185
668.000000	6.391487
669.000000	6.341601
670.000000	6.296717
671.000000	6.256350
672.000000	6.219827
673.000000	6.187823
674.000000	6.159629
675.000000	6.135180
676.000000	6.114006
677.000000	6.095758
678.000000	6.080705
679.000000	6.067942
680.000000	6.057796
681.000000	6.049798
682.000000	6.044387
683.000000	6.041462
684.000000	6.040090
685.000000	6.040221
686.000000	6.042184
687.000000	6.045538
688.000000	6.050151
689.000000	6.056088
690.000000	6.063100
691.000000	6.071446
692.000000	6.080437
693.000000	6.089795
694.000000	6.099452
695.000000	6.109589
696.000000	6.120586
697.000000	6.131679
698.000000	6.143269
699.000000	6.155964
700.000000	6.168840
701.000000	6.182105
702.000000	6.195394
703.000000	6.209300
704.000000	6.223616
705.000000	6.238211
706.000000	6.253240
707.000000	6.268851
708.000000	6.284811
709.000000	6.300634
710.000000	6.316443
711.000000	6.332778
712.000000	6.349636
713.000000	6.366196
714.000000	6.382771
715.000000	6.399574
716.000000	6.416321
717.000000	6.432644
718.000000	6.449512
719.000000	6.467139
720.000000	6.485197
721.000000	6.503198
722.000000	6.521220
723.000000	6.539828
724.000000	6.557719
725.000000	6.575396
726.000000	6.593445
727.000000	6.611943
728.000000	6.630616
729.000000	6.649765
730.000000	6.669379
731.000000	6.688970
732.000000	6.709026
733.000000	6.728717
734.000000	6.747296
735.000000	6.767593
736.000000	6.788247
737.000000	6.809069
738.000000	6.830452
739.000000	6.851998
740.000000	6.873504
741.000000	6.895025
742.000000	6.916262
743.000000	6.937193
744.000000	6.958435
745.000000	6.979982
746.000000	7.001970
747.000000	7.023049
748.000000	7.044361
749.000000	7.066769
750.000000	7.089555
751.000000	7.112410
752.000000	7.135154
753.000000	7.157185
754.000000	7.179541
755.000000	7.201836
756.000000	7.224643
757.000000	7.248482
758.000000	7.271828
759.000000	7.295820
760.000000	7.319751
761.000000	7.344523
762.000000	7.369009
763.000000	7.393944
764.000000	7.418979
765.000000	7.443617
766.000000	7.468257
767.000000	7.493074
768.000000	7.518217
769.000000	7.544363
770.000000	7.568975
771.000000	7.594363
772.000000	7.620593
773.000000	7.646318
774.000000	7.671443
775.000000	7.697104
776.000000	7.723109
777.000000	7.749622
778.000000	7.776194
779.000000	7.802767
780.000000	7.829509
781.000000	7.855711
782.000000	7.883989
783.000000	7.912850
784.000000	7.939757
785.000000	7.967325
786.000000	7.995314
787.000000	8.023583
788.000000	8.051909
789.000000	8.080679
790.000000	8.110544
791.000000	8.141208
792.000000	8.169187
793.000000	8.197459
794.000000	8.226356
795.000000	8.255674
796.000000	8.284135
797.000000	8.313011
798.000000	8.342603
799.000000	8.370858
800.000000	8.400481
801.000000	8.431520
802.000000	8.464193
803.000000	8.496130
804.000000	8.527456
805.000000	8.560729
806.000000	8.592079
807.000000	8.624456
808.000000	8.655379
809.000000	8.687934
810.000000	8.720489
811.000000	8.751861
812.000000	8.783840
813.000000	8.817302
814.000000	8.850729
815.000000	8.884161
816.000000	8.917031
817.000000	8.947415
818.000000	8.978303
819.000000	9.009474
820.000000	9.039875
821.000000	9.074565
822.000000	9.107399
823.000000	9.141385
824.000000	9.173617
825.000000	9.203980
826.000000	9.236437
827.000000	9.272598
828.000000	9.308284
829.000000	9.344892
830.000000	9.379896
831.000000	9.413326
832.000000	9.448975
833.000000	9.482099
834.000000	9.514253
835.000000	9.549866
836.000000	9.581196
837.000000	9.611431
838.000000	9.645663
839.000000	9.683882
840.000000	9.716926
841.000000	9.746742
842.000000	9.780676
843.000000	9.812089
844.000000	9.847393
845.000000	9.881719
846.000000	9.916198
847.000000	9.954630
848.000000	9.991454
849.000000	10.024995
850.000000	10.060544
851.000000	10.096507
852.000000	10.131023
853.000000	10.166445
854.000000	10.200916
855.000000	10.238307
856.000000	10.273082
857.000000	10.303580
858.000000	10.314532
859.000000	10.361795
860.000000	10.399052
861.000000	10.441975
862.000000	10.466714
863.000000	10.496940
864.000000	10.518678
865.000000	10.539682
866.000000	10.527979
867.000000	10.561584
868.000000	10.600616
869.000000	10.619611
870.000000	10.651677
871.000000	10.669453
872.000000	10.692067
873.000000	10.730444
874.000000	10.726569
875.000000	10.756369
876.000000	10.765011
877.000000	10.787961
878.000000	10.820460
879.000000	10.816978
880.000000	10.860310
881.000000	10.903905
882.000000	10.927105
883.000000	10.945616
884.000000	10.980770
885.000000	11.030670
886.000000	11.053044
887.000000	11.082504
888.000000	11.102045
889.000000	11.168657
890.000000	11.194882
891.000000	11.208032
892.000000	11.240706
893.000000	11.279510
894.000000	11.285311
895.000000	11.307523
896.000000	11.298874
897.000000	11.316141
898.000000	11.349782
899.000000	11.408726
900.000000	11.448101
901.000000	11.522116
902.000000	11.557581
903.000000	11.576344
904.000000	11.625162
905.000000	11.663869
906.000000	11.696279
907.000000	11.733201
908.000000	11.768411
909.000000	11.824202
910.000000	11.844499
911.000000	11.876291
912.000000	11.892327
913.000000	11.952004
914.000000	12.001534
915.000000	12.034208
916.000000	12.038681
917.000000	12.084979
918.000000	12.131328
919.000000	12.196610
920.000000	12.193191
921.000000	12.243240
922.000000	12.267630
923.000000	12.315924
924.000000	12.291181
925.000000	12.312155
926.000000	12.354186
927.000000	12.388180
928.000000	12.435301
929.000000	12.462995
930.000000	12.480407
931.000000	12.510522
932.000000	12.547337
933.000000	12.583126
934.000000	12.594140
935.000000	12.617437
936.000000	12.616763
937.000000	12.665664
938.000000	12.708736
939.000000	12.741810
940.000000	12.779002
941.000000	12.855819
942.000000	12.888856
943.000000	12.904638
944.000000	12.934353
945.000000	12.964954
946.000000	13.021397
947.000000	13.072192
948.000000	13.063365
949.000000	13.089141
950.000000	13.106638
951.000000	13.146430
952.000000	13.160865
953.000000	13.178555
954.000000	13.175111
955.000000	13.202245
956.000000	13.215880
957.000000	13.255654
958.000000	13.290747
959.000000	13.338289
960.000000	13.406474
961.000000	13.445061
962.000000	13.499633
963.000000	13.522491
964.000000	13.552930
965.000000	13.620673
966.000000	13.673042
967.000000	13.721471
968.000000	13.731786
969.000000	13.768915
970.000000	13.821486
971.000000	13.874463
972.000000	13.909159
973.000000	13.944501
974.000000	13.979653
975.000000	13.982864
976.000000	13.996088
977.000000	14.058742
978.000000	14.096104
979.000000	14.127340
980.000000	14.175840
981.000000	14.218755
982.000000	14.274031
983.000000	14.339700
984.000000	14.413089
985.000000	14.477734
986.000000	14.546329
987.000000	14.615386
988.000000	14.674303
989.000000	14.703181
990.000000	14.765021
991.000000	14.831033
992.000000	14.896362
993.000000	14.929279
994.000000	14.951864
995.000000	14.956999
996.000000	15.019398
997.000000	15.069670
998.000000	15.111997
999.000000	15.157965
1000.000000	15.171001
1001.000000	15.196473
1002.000000	15.226274
1003.000000	15.295376
1004.000000	15.344354
1005.000000	15.356924
1006.000000	15.381126
1007.000000	15.399452
1008.000000	15.442379
1009.000000	15.475107
1010.000000	15.537382
1011.000000	15.586302
1012.000000	15.598977
1013.000000	15.648433
1014.000000	15.721188
1015.000000	15.758600
1016.000000	15.780370
1017.000000	15.805263
1018.000000	15.825704
1019.000000	15.851073
1020.000000	15.868954
1021.000000	15.882065
1022.000000	15.903641
1023.000000	15.931663
1024.000000	15.972342
1025.000000	15.973437
1026.000000	15.957200
1027.000000	15.964523
1028.000000	15.989991
1029.000000	16.042550
1030.000000	16.089043
1031.000000	16.093015
1032.000000	16.070515
1033.000000	16.087902
1034.000000	16.106725
1035.000000	16.119955
1036.000000	16.172748
1037.000000	16.208398
1038.000000	16.204988
1039.000000	16.220312
1040.000000	16.253332
1041.000000	16.284244
1042.000000	16.286201
1043.000000	16.331599
1044.000000	16.408838
1045.000000	16.458793
1046.000000	16.462480
1047.000000	16.488178
1048.000000	16.505159
1049.000000	16.516514
1050.000000	16.561356
1051.000000	16.585637
1052.000000	16.620997
1053.000000	16.640413
1054.000000	16.668742
1055.000000	16.701077
1056.000000	16.747411
1057.000000	16.768834
1058.000000	16.807000
1059.000000	16.835588
1060.000000	16.869079
1061.000000	16.899529
1062.000000	16.925289
1063.000000	16.930076
1064.000000	16.939294
1065.000000	16.975189
1066.000000	17.028669
1067.000000	17.091613
1068.000000	17.119678
1069.000000	17.177682
1070.000000	17.232390
1071.000000	17.248997
1072.000000	17.256266
1073.000000	17.302125
1074.000000	17.332557
1075.000000	17.399777
1076.000000	17.460122
1077.000000	17.487782
1078.000000	17.500390
1079.000000	17.522854
1080.000000	17.546003
1081.000000	17.571049
1082.000000	17.599014
1083.000000	17.648517
1084.000000	17.722171
1085.000000	17.724044
1086.000000	17.785208
1087.000000	17.779589
1088.000000	17.815421
1089.000000	17.829703
1090.000000	17.847828
1091.000000	17.872030
1092.000000	17.905731
1093.000000	17.913799
1094.000000	17.946743
1095.000000	17.979197
1096.000000	18.024766
1097.000000	18.035219
1098.000000	18.073288
1099.000000	18.132536
1100.000000	18.139000
1101.000000	18.142705
1102.000000	18.177594
1103.000000	18.218768
1104.000000	18.263901
1105.000000	18.287584
1106.000000	18.334866
1107.000000	18.381484
1108.000000	18.377417
1109.000000	18.417004
1110.000000	18.427615
1111.000000	18.455428
1112.000000	18.501024
1113.000000	18.528916
1114.000000	18.527790
1115.000000	18.560622
1116.000000	18.592982
1117.000000	18.633677
1118.000000	18.654682
1119.000000	18.628273
1120.000000	18.668642
1121.000000	18.688822
1122.000000	18.752672
1123.000000	18.811400
1124.000000	18.868551
1125.000000	18.869182
1126.000000	18.854271
1127.000000	18.896277
1128.000000	18.972936
1129.000000	19.032552
1130.000000	19.101696
1131.000000	19.187731
1132.000000	19.242097
1133.000000	19.316095
1134.000000	19.338143
1135.000000	19.398958
1136.000000	19.465819
1137.000000	19.516964
1138.000000	19.574756
1139.000000	19.585301
1140.000000	19.627254
1141.000000	19.636631
1142.000000	19.720675
1143.000000	19.796093
1144.000000	19.848115
1145.000000	19.883980
1146.000000	19.920640
1147.000000	19.958267
1148.000000	19.984705
1149.000000	20.013626
1150.000000	20.027714
1151.000000	20.099684
1152.000000	20.149565
1153.000000	20.191583
1154.000000	20.249370
1155.000000	20.295428
1156.000000	20.327994
1157.000000	20.360266
1158.000000	20.368087
1159.000000	20.366434
1160.000000	20.412155
1161.000000	20.487370
1162.000000	20.502983
1163.000000	20.480957
1164.000000	20.461519
1165.000000	20.457002
1166.000000	20.437303
1167.000000	20.452624
1168.000000	20.451039
1169.000000	20.467456
1170.000000	20.438870
1171.000000	20.437336
1172.000000	20.411887
1173.000000	20.447267
1174.000000	20.494385
1175.000000	20.513092
1176.000000	20.545660
1177.000000	20.548517
1178.000000	20.567391
1179.000000	20.580932
1180.000000	20.579545
1181.000000	20.612674
1182.000000	20.619255
1183.000000	20.660006
1184.000000	20.684844
1185.000000	20.728751
1186.000000	20.724649
1187.000000	20.724539
1188.000000	20.712411
1189.000000	20.711805
1190.000000	20.693838
1191.000000	20.731678
1192.000000	20.726332
1193.000000	20.736726
1194.000000	20.777044
1195.000000	20.806489
1196.000000	20.811751
1197.000000	20.809869
1198.000000	20.852357
1199.000000	20.875845
1200.000000	20.912380
1201.000000	20.937557
1202.000000	20.985464
1203.000000	21.008894
1204.000000	21.019307
1205.000000	21.092658
1206.000000	21.142882
1207.000000	21.170053
1208.000000	21.140788
1209.000000	21.108249
1210.000000	21.131095
1211.000000	21.202136
1212.000000	21.235070
1213.000000	21.270827
1214.000000	21.270305
1215.000000	21.322941
1216.000000	21.350271
1217.000000	21.377929
1218.000000	21.381918
1219.000000	21.407867
1220.000000	21.390304
1221.000000	21.410936
1222.000000	21.476765
1223.000000	21.502659
1224.000000	21.514822
1225.000000	21.569443
1226.000000	21.570116
1227.000000	21.628518
1228.000000	21.638074
1229.000000	21.661097
1230.000000	21.688862
1231.000000	21.725291
1232.000000	21.779721
1233.000000	21.778308
1234.000000	21.805256
1235.000000	21.833992
1236.000000	21.850612
1237.000000	21.888167
1238.000000	21.954471
1239.000000	21.991303
1240.000000	22.010812
1241.000000	22.012244
1242.000000	22.039117
1243.000000	22.084453
1244.000000	22.142839
1245.000000	22.163680
1246.000000	22.147003
1247.000000	22.121294
1248.000000	22.151888
1249.000000	22.192321
1250.000000	22.202693
1251.000000	22.216680
1252.000000	22.262865
1253.000000	22.282877
1254.000000	22.306082
1255.000000	22.358903
1256.000000	22.396466
1257.000000	22.370751
1258.000000	22.409704
1259.000000	22.449154
1260.000000	22.465336
1261.000000	22.445177
1262.000000	22.414428
1263.000000	22.436177
1264.000000	22.430538
1265.000000	22.446110
1266.000000	22.439864
1267.000000	22.400767
1268.000000	22.397001
1269.000000	22.408201
1270.000000	22.424427
1271.000000	22.454244
1272.000000	22.448589
1273.000000	22.433414
1274.000000	22.466746
1275.000000	22.464664
1276.000000	22.455677
1277.000000	22.507658
1278.000000	22.528347
1279.000000	22.540761
1280.000000	22.563965
1281.000000	22.595195
1282.000000	22.618651
1283.000000	22.627578
1284.000000	22.644843
1285.000000	22.678486
1286.000000	22.665468
1287.000000	22.663687
1288.000000	22.688717
1289.000000	22.692198
1290.000000	22.704904
1291.000000	22.714161
1292.000000	22.737440
1293.000000	22.730178
1294.000000	22.720790
1295.000000	22.731237
1296.000000	22.813801
1297.000000	22.876223
1298.000000	22.926841
1299.000000	22.989721
1300.000000	23.012360
1301.000000	23.034838
1302.000000	23.081671
1303.000000	23.108824
1304.000000	23.140961
1305.000000	23.137197
1306.000000	23.148526
1307.000000	23.170886
1308.000000	23.192107
1309.000000	23.217961
1310.000000	23.260815
1311.000000	23.294550
1312.000000	23.304634
1313.000000	23.332223
1314.000000	23.336884
1315.000000	23.361838
1316.000000	23.338296
1317.000000	23.353658
1318.000000	23.351617
1319.000000	23.348354
1320.000000	23.323673
1321.000000	23.377061
1322.000000	23.405898
1323.000000	23.425858
1324.000000	23.437732
1325.000000	23.433736
1326.000000	23.421944
1327.000000	23.445238
1328.000000	23.480839
1329.000000	23.500891
1330.000000	23.526893
1331.000000	23.516889
1332.000000	23.522379
1333.000000	23.545363
1334.000000	23.543193
1335.000000	23.533235
1336.000000	23.542600
1337.000000	23.573754
1338.000000	23.633541
1339.000000	23.654336
1340.000000	23.691568
1341.000000	23.720538
1342.000000	23.725043
1343.000000	23.705515
1344.000000	23.699752
1345.000000	23.681745
1346.000000	23.720810
1347.000000	23.678707
1348.000000	23.636760
1349.000000	23.661751
1350.000000	23.681682
1351.000000	23.647411
1352.000000	23.727496
1353.000000	23.778510
1354.000000	23.765678
1355.000000	23.668483
1356.000000	23.722420
1357.000000	23.673157
1358.000000	23.606549
1359.000000	23.580324
1360.000000	23.579355
1361.000000	23.733776
1362.000000	23.900462
1363.000000	23.953240
1364.000000	23.601235
1365.000000	23.496219
1366.000000	23.473527
1367.000000	23.267752
1368.000000	23.036817
1369.000000	23.048741
1370.000000	23.212090
1371.000000	23.267374
1372.000000	23.172637
1373.000000	23.062559
1374.000000	23.089185
1375.000000	23.047434
1376.000000	23.050575
1377.000000	22.990375
1378.000000	22.783003
1379.000000	22.726259
1380.000000	22.302730
1381.000000	22.076647
1382.000000	21.792798
1383.000000	21.739308
1384.000000	21.834681
1385.000000	21.798822
1386.000000	21.854180
1387.000000	21.872943
1388.000000	21.959427
1389.000000	22.025360
1390.000000	22.181880
1391.000000	22.092826
1392.000000	22.073675
1393.000000	22.154565
1394.000000	22.301551
1395.000000	22.128168
1396.000000	21.706517
1397.000000	21.475241
1398.000000	21.366638
1399.000000	21.654908
1400.000000	21.490506
1401.000000	21.349778
1402.000000	21.561959
1403.000000	21.749765
1404.000000	21.935656
1405.000000	21.833543
1406.000000	21.780043
1407.000000	21.806846
1408.000000	21.857483
1409.000000	21.705940
1410.000000	21.668185
1411.000000	21.591017
1412.000000	21.607646
1413.000000	21.814104
1414.000000	21.874044
1415.000000	22.268212
1416.000000	22.432825
1417.000000	22.715585
1418.000000	22.908278
1419.000000	22.822109
1420.000000	22.796300
1421.000000	22.733392
1422.000000	22.606684
1423.000000	22.515169
1424.000000	22.440794
1425.000000	22.311673
1426.000000	22.292270
1427.000000	22.328527
1428.000000	22.300464
1429.000000	22.155144
1430.000000	22.300541
1431.000000	22.509830
1432.000000	22.459799
1433.000000	22.437977
1434.000000	22.429332
1435.000000	22.656277
1436.000000	22.777813
1437.000000	22.742548
1438.000000	22.757492
1439.000000	22.497579
1440.000000	22.390733
1441.000000	22.299596
1442.000000	22.362870
1443.000000	22.373698
1444.000000	22.406858
1445.000000	22.439661
1446.000000	22.438137
1447.000000	22.401128
1448.000000	22.386148
1449.000000	22.375292
1450.000000	22.379535
1451.000000	22.353091
1452.000000	22.322997
1453.000000	22.168305
1454.000000	22.115455
1455.000000	22.082194
1456.000000	22.133088
1457.000000	22.124567
1458.000000	22.066927
1459.000000	22.020498
1460.000000	22.010796
1461.000000	21.977399
1462.000000	21.953330
1463.000000	21.906273
1464.000000	21.891526
1465.000000	21.877636
1466.000000	21.928260
1467.000000	21.993664
1468.000000	22.035011
1469.000000	22.071127
1470.000000	22.052490
1471.000000	22.042154
1472.000000	21.956052
1473.000000	21.907720
1474.000000	21.880257
1475.000000	21.890456
1476.000000	21.936941
1477.000000	21.898249
1478.000000	21.866996
1479.000000	21.880770
1480.000000	21.863036
1481.000000	21.901947
1482.000000	21.917495
1483.000000	21.882168
1484.000000	21.815303
1485.000000	21.781418
1486.000000	21.780089
1487.000000	21.801050
1488.000000	21.784666
1489.000000	21.768396
1490.000000	21.793706
1491.000000	21.766720
1492.000000	21.759691
1493.000000	21.704814
1494.000000	21.722441
1495.000000	21.781813
1496.000000	21.803640
1497.000000	21.816400
1498.000000	21.796323
1499.000000	21.771263
1500.000000	21.742745
1501.000000	21.696426
1502.000000	21.683479
1503.000000	21.682505
1504.000000	21.711335
1505.000000	21.712938
1506.000000	21.712703
1507.000000	21.773816
1508.000000	21.790123
1509.000000	21.806630
1510.000000	21.790401
1511.000000	21.771580
1512.000000	21.749790
1513.000000	21.728024
1514.000000	21.727175
1515.000000	21.734739
1516.000000	21.704360
1517.000000	21.690916
1518.000000	21.722830
1519.000000	21.788433
1520.000000	21.810596
1521.000000	21.809390
1522.000000	21.780842
1523.000000	21.799589
1524.000000	21.810816
1525.000000	21.805371
1526.000000	21.805540
1527.000000	21.848419
1528.000000	21.903215
1529.000000	21.906434
1530.000000	21.922099
1531.000000	21.938134
1532.000000	21.948946
1533.000000	21.971249
1534.000000	21.992305
1535.000000	22.000663
1536.000000	22.005558
1537.000000	22.022692
1538.000000	22.021737
1539.000000	21.990257
1540.000000	21.990154
1541.000000	21.995353
1542.000000	22.020579
1543.000000	22.022871
1544.000000	22.039219
1545.000000	22.074111
1546.000000	22.085410
1547.000000	22.102474
1548.000000	22.150394
1549.000000	22.177773
1550.000000	22.190734
1551.000000	22.185925
1552.000000	22.187207
1553.000000	22.158361
1554.000000	22.136717
1555.000000	22.159070
1556.000000	22.193563
1557.000000	22.210292
1558.000000	22.186721
1559.000000	22.192506
1560.000000	22.210717
1561.000000	22.195451
1562.000000	22.155598
1563.000000	22.132502
1564.000000	22.152294
1565.000000	22.152678
1566.000000	22.128901
1567.000000	22.095204
1568.000000	22.093774
1569.000000	22.095290
1570.000000	22.091276
1571.000000	22.091132
1572.000000	22.086799
1573.000000	22.078643
1574.000000	22.104190
1575.000000	22.101863
1576.000000	22.084959
1577.000000	22.052860
1578.000000	22.006861
1579.000000	21.996961
1580.000000	22.021447
1581.000000	22.046703
1582.000000	22.049524
1583.000000	22.032583
1584.000000	22.032675
1585.000000	22.036516
1586.000000	22.072327
1587.000000	22.124663
1588.000000	22.163407
1589.000000	22.147989
1590.000000	22.109399
1591.000000	22.059924
1592.000000	22.079298
1593.000000	22.132812
1594.000000	22.152051
1595.000000	22.118694
1596.000000	22.126893
1597.000000	22.138233
1598.000000	22.146987
1599.000000	22.139527
1600.000000	22.135854
1601.000000	22.157538
1602.000000	22.154915
1603.000000	22.166357
1604.000000	22.185213
1605.000000	22.225658
1606.000000	22.259658
1607.000000	22.290512
1608.000000	22.322246
1609.000000	22.353252
1610.000000	22.379621
1611.000000	22.429638
1612.000000	22.453442
1613.000000	22.486958
1614.000000	22.483452
1615.000000	22.463356
1616.000000	22.443982
1617.000000	22.464436
1618.000000	22.481855
1619.000000	22.472970
1620.000000	22.459737
1621.000000	22.414218
1622.000000	22.393702
1623.000000	22.379465
1624.000000	22.360366
1625.000000	22.379976
1626.000000	22.409587
1627.000000	22.386605
1628.000000	22.369289
1629.000000	22.359841
1630.000000	22.391155
1631.000000	22.384499
1632.000000	22.372187
1633.000000	22.327800
1634.000000	22.335716
1635.000000	22.328369
1636.000000	22.357177
1637.000000	22.424738
1638.000000	22.434984
1639.000000	22.414575
1640.000000	22.375602
1641.000000	22.375934
1642.000000	22.356134
1643.000000	22.341310
1644.000000	22.344318
1645.000000	22.342525
1646.000000	22.314479
1647.000000	22.321398
1648.000000	22.375239
1649.000000	22.396634
1650.000000	22.409256
1651.000000	22.421354
1652.000000	22.405800
1653.000000	22.424112
1654.000000	22.456058
1655.000000	22.466839
1656.000000	22.473382
1657.000000	22.477316
1658.000000	22.503813
1659.000000	22.518902
1660.000000	22.514383
1661.000000	22.536649
1662.000000	22.558923
1663.000000	22.585463
1664.000000	22.601240
1665.000000	22.611675
1666.000000	22.608487
1667.000000	22.580260
1668.000000	22.631768
1669.000000	22.583918
1670.000000	22.563883
1671.000000	22.524583
1672.000000	22.476786
1673.000000	22.432812
1674.000000	22.442925
1675.000000	22.464717
1676.000000	22.442145
1677.000000	22.418311
1678.000000	22.412216
1679.000000	22.328555
1680.000000	22.285278
1681.000000	22.247513
1682.000000	22.178715
1683.000000	22.112290
1684.000000	22.095302
1685.000000	22.071311
1686.000000	22.070414
1687.000000	22.042741
1688.000000	21.990458
1689.000000	21.925488
1690.000000	21.847669
1691.000000	21.823442
1692.000000	21.780859
1693.000000	21.755645
1694.000000	21.720644
1695.000000	21.694133
1696.000000	21.626618
1697.000000	21.610826
1698.000000	21.564300
1699.000000	21.492749
1700.000000	21.462065
1701.000000	21.474423
1702.000000	21.469694
1703.000000	21.417534
1704.000000	21.452064
1705.000000	21.453407
1706.000000	21.420742
1707.000000	21.390496
1708.000000	21.358123
1709.000000	21.308505
1710.000000	21.271150
1711.000000	21.260896
1712.000000	21.218665
1713.000000	21.194070
1714.000000	21.167017
1715.000000	21.161752
1716.000000	21.158148
1717.000000	21.175008
1718.000000	21.154836
1719.000000	21.122063
1720.000000	21.092250
1721.000000	21.040037
1722.000000	21.013877
1723.000000	21.016417
1724.000000	21.019917
1725.000000	21.018588
1726.000000	21.018956
1727.000000	21.009429
1728.000000	20.934369
1729.000000	20.890933
1730.000000	20.891127
1731.000000	20.891710
1732.000000	20.847608
1733.000000	20.812044
1734.000000	20.854091
1735.000000	20.812436
1736.000000	20.770240
1737.000000	20.779496
1738.000000	20.787579
1739.000000	20.753534
1740.000000	20.747584
1741.000000	20.701781
1742.000000	20.660029
1743.000000	20.689695
1744.000000	20.681653
1745.000000	20.668409
1746.000000	20.639296
1747.000000	20.671417
1748.000000	20.632318
1749.000000	20.625889
1750.000000	20.601820
1751.000000	20.588552
1752.000000	20.562840
1753.000000	20.510778
1754.000000	20.491230
1755.000000	20.468228
1756.000000	20.468835
1757.000000	20.457676
1758.000000	20.452531
1759.000000	20.478313
1760.000000	20.491145
1761.000000	20.477706
1762.000000	20.475294
1763.000000	20.484002
1764.000000	20.534330
1765.000000	20.547040
1766.000000	20.537939
1767.000000	20.536994
1768.000000	20.547285
1769.000000	20.512264
1770.000000	20.544133
1771.000000	20.562122
1772.000000	20.542631
1773.000000	20.506090
1774.000000	20.489730
1775.000000	20.460451
1776.000000	20.516386
1777.000000	20.573342
1778.000000	20.564518
1779.000000	20.559081
1780.000000	20.571659
1781.000000	20.576218
1782.000000	20.571240
1783.000000	20.578120
1784.000000	20.601643
1785.000000	20.626258
1786.000000	20.627343
1787.000000	20.626903
1788.000000	20.662668
1789.000000	20.650644
1790.000000	20.662532
1791.000000	20.685878
1792.000000	20.699006
1793.000000	20.680244
1794.000000	20.612378
1795.000000	20.597117
1796.000000	20.604264
1797.000000	20.586571
1798.000000	20.605475
1799.000000	20.588715
1800.000000	20.554712
1801.000000	20.542469
1802.000000	20.511266
1803.000000	20.481057
1804.000000	20.492248
1805.000000	20.474659
1806.000000	20.450535
1807.000000	20.479092
1808.000000	20.517600
1809.000000	20.542871
1810.000000	20.538693
1811.000000	20.454361
1812.000000	20.362584
1813.000000	20.306093
1814.000000	20.342550
1815.000000	20.406493
1816.000000	20.368895
1817.000000	20.338195
1818.000000	20.412443
1819.000000	20.467654
1820.000000	20.585658
1821.000000	20.593593
1822.000000	20.584031
1823.000000	20.536347
1824.000000	20.510909
1825.000000	20.447229
1826.000000	20.452699
1827.000000	20.426406
1828.000000	20.358841
1829.000000	20.330002
1830.000000	20.275597
1831.000000	20.266092
1832.000000	20.288579
1833.000000	20.207234
1834.000000	20.118898
1835.000000	20.096394
1836.000000	20.193616
1837.000000	20.262583
1838.000000	20.277538
1839.000000	20.150980
1840.000000	20.078890
1841.000000	20.042734
1842.000000	20.055879
1843.000000	20.029362
1844.000000	19.959802
1845.000000	19.947715
1846.000000	19.965608
1847.000000	20.046619
1848.000000	20.094319
1849.000000	20.095284
1850.000000	20.050095
1851.000000	20.042247
1852.000000	19.981404
1853.000000	19.767231
1854.000000	19.637677
1855.000000	19.563009
1856.000000	19.718277
1857.000000	19.794499
1858.000000	19.895849
1859.000000	19.990332
1860.000000	20.020503
1861.000000	19.966765
1862.000000	19.960442
1863.000000	19.883472
1864.000000	19.812587
1865.000000	19.827464
1866.000000	19.865665
1867.000000	19.875895
1868.000000	19.961322
1869.000000	20.024462
1870.000000	19.737825
1871.000000	19.495107
1872.000000	19.426437
1873.000000	19.409521
1874.000000	19.494933
1875.000000	19.561832
1876.000000	19.515906
1877.000000	19.454292
1878.000000	19.419100
1879.000000	19.458329
1880.000000	19.433930
1881.000000	19.430633
1882.000000	19.364698
1883.000000	19.328165
1884.000000	19.293340
1885.000000	19.214211
1886.000000	19.189483
1887.000000	19.180537
1888.000000	19.281732
1889.000000	19.331467
1890.000000	19.249263
1891.000000	19.042775
1892.000000	18.962692
1893.000000	18.769386
1894.000000	18.644701
1895.000000	18.615105
1896.000000	18.573219
1897.000000	18.479415
1898.000000	18.552884
1899.000000	18.584508
1900.000000	18.549512
1901.000000	18.408990
1902.000000	18.136901
1903.000000	18.023014
1904.000000	17.998507
1905.000000	18.196826
1906.000000	18.149214
1907.000000	18.020103
1908.000000	17.890935
1909.000000	17.759362
1910.000000	17.689203
1911.000000	17.637495
1912.000000	17.556944
1913.000000	17.413985
1914.000000	17.263668
1915.000000	17.177150
1916.000000	17.041601
1917.000000	16.889741
1918.000000	16.734634
1919.000000	16.571442
1920.000000	16.393572
1921.000000	16.290999
1922.000000	16.192002
1923.000000	16.098392
1924.000000	15.987289
1925.000000	15.832533
1926.000000	15.712811
1927.000000	15.591852
1928.000000	15.526778
1929.000000	15.441921
1930.000000	15.327072
1931.000000	15.211731
1932.000000	15.121442
1933.000000	15.057117
1934.000000	14.988315
1935.000000	14.934426
1936.000000	14.846135
1937.000000	14.924989
1938.000000	14.871075
1939.000000	14.683616
1940.000000	14.612560
1941.000000	14.658294
1942.000000	14.623922
1943.000000	14.602894
1944.000000	14.542203
1945.000000	14.444046
1946.000000	14.456151
1947.000000	14.391277
1948.000000	14.450254
1949.000000	14.425081
1950.000000	14.375452
1951.000000	14.407830
1952.000000	14.450902
1953.000000	14.472986
1954.000000	14.462856
1955.000000	14.520607
1956.000000	14.527437
1957.000000	14.504070
1958.000000	14.494347
1959.000000	14.464749
1960.000000	14.473833
1961.000000	14.516231
1962.000000	14.512722
1963.000000	14.542447
1964.000000	14.540599
1965.000000	14.530386
1966.000000	14.522147
1967.000000	14.569952
1968.000000	14.539686
1969.000000	14.547527
1970.000000	14.529441
1971.000000	14.575847
1972.000000	14.552665
1973.000000	14.549875
1974.000000	14.595832
1975.000000	14.622145
1976.000000	14.610303
1977.000000	14.625932
1978.000000	14.618416
1979.000000	14.647628
1980.000000	14.658461
1981.000000	14.611361
1982.000000	14.624220
1983.000000	14.608546
1984.000000	14.633874
1985.000000	14.668686
1986.000000	14.646939
1987.000000	14.643210
1988.000000	14.654022
1989.000000	14.682536
1990.000000	14.687135
1991.000000	14.690060
1992.000000	14.719701
1993.000000	14.704679
1994.000000	14.696798
1995.000000	14.754309
1996.000000	14.736191
1997.000000	14.714568
1998.000000	14.750395
1999.000000	14.771327
2000.000000	14.798554
