PE UV       SUBTECH     SPECTRUM    ASCII       PEDS        4.00        
   -1
C.BOUC.INB5423-TX3.ASC
23/11/30
16:47:56.00
23/11/30
16:47:56.00
Vinicio Soto Monge
C.BOUCARDI_INB0040G5423_COBRE
250,000000
1
Lambda 1050
1050L1511233
PerkinElmer UV WinLab 6.3.2.0749 / 2.02.05 Lambda 900 UV/VIS/NIR, Aug  7 2015 09:38:08

0
0
3350/servo 860,8/2
0
0
UV/VIS
1
1
1
DoubleDePol,CommonBeamDepol,RBeamAtt,SBeamAtt,60mm sphere, WB InGaAs Detector
0
0
0
0
Program
Program
3350/servo 860,8/2
3350/0,4 860,8/0,4
3350/0,4 860,8/0,4
0
20.00
 
 
 
0
 
860,8
319,2
860,8
Front
100
on
S:100 R:100
0
0
0
0
 
0
 
 
 
0
 
 
0
0
0
0
0
 
 
 
 
0
0


0
0
#HDR
-1
-1
#GR
nm
%R
1.0
0.0
2200,000000
-1,000000
1951
8
49,250288
0,338038
#DATA
284.000000	5.962577
285.000000	5.945925
286.000000	5.929164
287.000000	5.915063
288.000000	5.902778
289.000000	5.888193
290.000000	5.877298
291.000000	5.868130
292.000000	5.857152
293.000000	5.845979
294.000000	5.835072
295.000000	5.828785
296.000000	5.821019
297.000000	5.815121
298.000000	5.810514
299.000000	5.804814
300.000000	5.798100
301.000000	5.791161
302.000000	5.784899
303.000000	5.776499
304.000000	5.768793
305.000000	5.762072
306.000000	5.755476
307.000000	5.747664
308.000000	5.737485
309.000000	5.727322
310.000000	5.719136
311.000000	5.709465
312.000000	5.698976
313.000000	5.689891
314.000000	5.682646
315.000000	5.673009
316.000000	5.665874
317.000000	5.652354
318.000000	5.631937
319.000000	5.618962
320.000000	5.610459
321.000000	5.595825
322.000000	5.579700
323.000000	5.567278
324.000000	5.552853
325.000000	5.538536
326.000000	5.522737
327.000000	5.507433
328.000000	5.492470
329.000000	5.476188
330.000000	5.451972
331.000000	5.433528
332.000000	5.419064
333.000000	5.399267
334.000000	5.375532
335.000000	5.353639
336.000000	5.333043
337.000000	5.316994
338.000000	5.299821
339.000000	5.280843
340.000000	5.259225
341.000000	5.239228
342.000000	5.220537
343.000000	5.202945
344.000000	5.184628
345.000000	5.167060
346.000000	5.146994
347.000000	5.126438
348.000000	5.108637
349.000000	5.090850
350.000000	5.072561
351.000000	5.052800
352.000000	5.037534
353.000000	5.026642
354.000000	5.006955
355.000000	4.984679
356.000000	4.968923
357.000000	4.953030
358.000000	4.935531
359.000000	4.919550
360.000000	4.901004
361.000000	4.886590
362.000000	4.870940
363.000000	4.853010
364.000000	4.838644
365.000000	4.827588
366.000000	4.814007
367.000000	4.794889
368.000000	4.778370
369.000000	4.767346
370.000000	4.756567
371.000000	4.744856
372.000000	4.727976
373.000000	4.716181
374.000000	4.703336
375.000000	4.690407
376.000000	4.678170
377.000000	4.669270
378.000000	4.662729
379.000000	4.657292
380.000000	4.649886
381.000000	4.645440
382.000000	4.641392
383.000000	4.636152
384.000000	4.631847
385.000000	4.627281
386.000000	4.624059
387.000000	4.622209
388.000000	4.622549
389.000000	4.623484
390.000000	4.626512
391.000000	4.628332
392.000000	4.632907
393.000000	4.635180
394.000000	4.640468
395.000000	4.647559
396.000000	4.652928
397.000000	4.659563
398.000000	4.670182
399.000000	4.680520
400.000000	4.693062
401.000000	4.706541
402.000000	4.722151
403.000000	4.740601
404.000000	4.758439
405.000000	4.776219
406.000000	4.795144
407.000000	4.816720
408.000000	4.838211
409.000000	4.861657
410.000000	4.888032
411.000000	4.914940
412.000000	4.939524
413.000000	4.965978
414.000000	4.993448
415.000000	5.022547
416.000000	5.053313
417.000000	5.085539
418.000000	5.118897
419.000000	5.153458
420.000000	5.190063
421.000000	5.228324
422.000000	5.267833
423.000000	5.308849
424.000000	5.350763
425.000000	5.393805
426.000000	5.438373
427.000000	5.484268
428.000000	5.531402
429.000000	5.580058
430.000000	5.629783
431.000000	5.680629
432.000000	5.732952
433.000000	5.786024
434.000000	5.839594
435.000000	5.894215
436.000000	5.950246
437.000000	6.006778
438.000000	6.063809
439.000000	6.121852
440.000000	6.180996
441.000000	6.241079
442.000000	6.302450
443.000000	6.364734
444.000000	6.427849
445.000000	6.491184
446.000000	6.554937
447.000000	6.619134
448.000000	6.683764
449.000000	6.749080
450.000000	6.814418
451.000000	6.879367
452.000000	6.944548
453.000000	7.010121
454.000000	7.075945
455.000000	7.141307
456.000000	7.206592
457.000000	7.271782
458.000000	7.337064
459.000000	7.402596
460.000000	7.467843
461.000000	7.532488
462.000000	7.596767
463.000000	7.660790
464.000000	7.724473
465.000000	7.787580
466.000000	7.849734
467.000000	7.910686
468.000000	7.970845
469.000000	8.030167
470.000000	8.087872
471.000000	8.144164
472.000000	8.199431
473.000000	8.253498
474.000000	8.306489
475.000000	8.357693
476.000000	8.406983
477.000000	8.454839
478.000000	8.500562
479.000000	8.544801
480.000000	8.587306
481.000000	8.628344
482.000000	8.667798
483.000000	8.705112
484.000000	8.740835
485.000000	8.775000
486.000000	8.807715
487.000000	8.838782
488.000000	8.868297
489.000000	8.896091
490.000000	8.922650
491.000000	8.947831
492.000000	8.972064
493.000000	8.994895
494.000000	9.016349
495.000000	9.037106
496.000000	9.057755
497.000000	9.077147
498.000000	9.095604
499.000000	9.113498
500.000000	9.130849
501.000000	9.147668
502.000000	9.165422
503.000000	9.183736
504.000000	9.202665
505.000000	9.223024
506.000000	9.243804
507.000000	9.265122
508.000000	9.287717
509.000000	9.310974
510.000000	9.335650
511.000000	9.362748
512.000000	9.391617
513.000000	9.422968
514.000000	9.456402
515.000000	9.491948
516.000000	9.529704
517.000000	9.569433
518.000000	9.611597
519.000000	9.656324
520.000000	9.703662
521.000000	9.753709
522.000000	9.806383
523.000000	9.862173
524.000000	9.920853
525.000000	9.982056
526.000000	10.045498
527.000000	10.111348
528.000000	10.180261
529.000000	10.251904
530.000000	10.326465
531.000000	10.402820
532.000000	10.482018
533.000000	10.563740
534.000000	10.648301
535.000000	10.735279
536.000000	10.825480
537.000000	10.917899
538.000000	11.012103
539.000000	11.107795
540.000000	11.205495
541.000000	11.305794
542.000000	11.408165
543.000000	11.512215
544.000000	11.618115
545.000000	11.726196
546.000000	11.835642
547.000000	11.946461
548.000000	12.058941
549.000000	12.172684
550.000000	12.288231
551.000000	12.404779
552.000000	12.523127
553.000000	12.643249
554.000000	12.764628
555.000000	12.887921
556.000000	13.012454
557.000000	13.138463
558.000000	13.264826
559.000000	13.392042
560.000000	13.522375
561.000000	13.654058
562.000000	13.786317
563.000000	13.919282
564.000000	14.053335
565.000000	14.188021
566.000000	14.324406
567.000000	14.461975
568.000000	14.600945
569.000000	14.739505
570.000000	14.878489
571.000000	15.017601
572.000000	15.156974
573.000000	15.296998
574.000000	15.437650
575.000000	15.577802
576.000000	15.717668
577.000000	15.856891
578.000000	15.995768
579.000000	16.134675
580.000000	16.273260
581.000000	16.411048
582.000000	16.548351
583.000000	16.683701
584.000000	16.817809
585.000000	16.950593
586.000000	17.082694
587.000000	17.213832
588.000000	17.342766
589.000000	17.469916
590.000000	17.593500
591.000000	17.714996
592.000000	17.833979
593.000000	17.950139
594.000000	18.063446
595.000000	18.172040
596.000000	18.278254
597.000000	18.380629
598.000000	18.480426
599.000000	18.576506
600.000000	18.668783
601.000000	18.756716
602.000000	18.841078
603.000000	18.921328
604.000000	18.998143
605.000000	19.071173
606.000000	19.139181
607.000000	19.203031
608.000000	19.262453
609.000000	19.317887
610.000000	19.370243
611.000000	19.417559
612.000000	19.460888
613.000000	19.499803
614.000000	19.534243
615.000000	19.564412
616.000000	19.589989
617.000000	19.610436
618.000000	19.627286
619.000000	19.641014
620.000000	19.650411
621.000000	19.656233
622.000000	19.657656
623.000000	19.655968
624.000000	19.649838
625.000000	19.641603
626.000000	19.629754
627.000000	19.613567
628.000000	19.596204
629.000000	19.576710
630.000000	19.553994
631.000000	19.528193
632.000000	19.501505
633.000000	19.471595
634.000000	19.439652
635.000000	19.406408
636.000000	19.371551
637.000000	19.335353
638.000000	19.298029
639.000000	19.260143
640.000000	19.221723
641.000000	19.184588
642.000000	19.147188
643.000000	19.110082
644.000000	19.072808
645.000000	19.034508
646.000000	18.997781
647.000000	18.962855
648.000000	18.930479
649.000000	18.900668
650.000000	18.873240
651.000000	18.847898
652.000000	18.825400
653.000000	18.806344
654.000000	18.790301
655.000000	18.778093
656.000000	18.768540
657.000000	18.763278
658.000000	18.762163
659.000000	18.765988
660.000000	18.774411
661.000000	18.789388
662.000000	18.812120
663.000000	18.839495
664.000000	18.872029
665.000000	18.911938
666.000000	18.959118
667.000000	19.013398
668.000000	19.075968
669.000000	19.147788
670.000000	19.227744
671.000000	19.317168
672.000000	19.415973
673.000000	19.525745
674.000000	19.647360
675.000000	19.781376
676.000000	19.925827
677.000000	20.081800
678.000000	20.251811
679.000000	20.436347
680.000000	20.635805
681.000000	20.850047
682.000000	21.079553
683.000000	21.324916
684.000000	21.585894
685.000000	21.862689
686.000000	22.155840
687.000000	22.466099
688.000000	22.793860
689.000000	23.138175
690.000000	23.499427
691.000000	23.877974
692.000000	24.272825
693.000000	24.684845
694.000000	25.113760
695.000000	25.558892
696.000000	26.018943
697.000000	26.491256
698.000000	26.977795
699.000000	27.478003
700.000000	27.989064
701.000000	28.511111
702.000000	29.043848
703.000000	29.584225
704.000000	30.129841
705.000000	30.680054
706.000000	31.233124
707.000000	31.788132
708.000000	32.343119
709.000000	32.897440
710.000000	33.449395
711.000000	33.998728
712.000000	34.544833
713.000000	35.083263
714.000000	35.613917
715.000000	36.135944
716.000000	36.648581
717.000000	37.150374
718.000000	37.639462
719.000000	38.115152
720.000000	38.577079
721.000000	39.023203
722.000000	39.453605
723.000000	39.868349
724.000000	40.265038
725.000000	40.643456
726.000000	41.005052
727.000000	41.349216
728.000000	41.674602
729.000000	41.980683
730.000000	42.268690
731.000000	42.539378
732.000000	42.793597
733.000000	43.031191
734.000000	43.254978
735.000000	43.463869
736.000000	43.656073
737.000000	43.831325
738.000000	43.993688
739.000000	44.143604
740.000000	44.282185
741.000000	44.410388
742.000000	44.527024
743.000000	44.632846
744.000000	44.727660
745.000000	44.815221
746.000000	44.895670
747.000000	44.967395
748.000000	45.035740
749.000000	45.098335
750.000000	45.157654
751.000000	45.210670
752.000000	45.257574
753.000000	45.299773
754.000000	45.338405
755.000000	45.374421
756.000000	45.407026
757.000000	45.436920
758.000000	45.463810
759.000000	45.490993
760.000000	45.516388
761.000000	45.537652
762.000000	45.556585
763.000000	45.574607
764.000000	45.592728
765.000000	45.608589
766.000000	45.623689
767.000000	45.639164
768.000000	45.652219
769.000000	45.660105
770.000000	45.665606
771.000000	45.670128
772.000000	45.674906
773.000000	45.678088
774.000000	45.679835
775.000000	45.680418
776.000000	45.677656
777.000000	45.675892
778.000000	45.673562
779.000000	45.668538
780.000000	45.662143
781.000000	45.652839
782.000000	45.643418
783.000000	45.632180
784.000000	45.617186
785.000000	45.598572
786.000000	45.581169
787.000000	45.566104
788.000000	45.550659
789.000000	45.537914
790.000000	45.520849
791.000000	45.503254
792.000000	45.489408
793.000000	45.474834
794.000000	45.456988
795.000000	45.441935
796.000000	45.430540
797.000000	45.417033
798.000000	45.403379
799.000000	45.391828
800.000000	45.378017
801.000000	45.362639
802.000000	45.345260
803.000000	45.334852
804.000000	45.330065
805.000000	45.325387
806.000000	45.323189
807.000000	45.319077
808.000000	45.316963
809.000000	45.315601
810.000000	45.313498
811.000000	45.316431
812.000000	45.323014
813.000000	45.331960
814.000000	45.343244
815.000000	45.353457
816.000000	45.369098
817.000000	45.384091
818.000000	45.395658
819.000000	45.413614
820.000000	45.434139
821.000000	45.457411
822.000000	45.473742
823.000000	45.495137
824.000000	45.510621
825.000000	45.525548
826.000000	45.546053
827.000000	45.567218
828.000000	45.583329
829.000000	45.604400
830.000000	45.623643
831.000000	45.640230
832.000000	45.655852
833.000000	45.671880
834.000000	45.685656
835.000000	45.696496
836.000000	45.705553
837.000000	45.714431
838.000000	45.709816
839.000000	45.709616
840.000000	45.705648
841.000000	45.700557
842.000000	45.690917
843.000000	45.682410
844.000000	45.667140
845.000000	45.656877
846.000000	45.634385
847.000000	45.611763
848.000000	45.587473
849.000000	45.557932
850.000000	45.518016
851.000000	45.483350
852.000000	45.450446
853.000000	45.422982
854.000000	45.386781
855.000000	45.347879
856.000000	45.292446
857.000000	45.233807
858.000000	45.135873
859.000000	45.117237
860.000000	45.066882
861.000000	45.037226
862.000000	45.011881
863.000000	44.991247
864.000000	44.960945
865.000000	44.933012
866.000000	44.888716
867.000000	44.887020
868.000000	44.778280
869.000000	44.766088
870.000000	44.709067
871.000000	44.642667
872.000000	44.584986
873.000000	44.486332
874.000000	44.441245
875.000000	44.388471
876.000000	44.343249
877.000000	44.301094
878.000000	44.264532
879.000000	44.243233
880.000000	44.187685
881.000000	44.096021
882.000000	44.034991
883.000000	43.975673
884.000000	43.907215
885.000000	43.846955
886.000000	43.721279
887.000000	43.654620
888.000000	43.571536
889.000000	43.499135
890.000000	43.402229
891.000000	43.297920
892.000000	43.198672
893.000000	43.159618
894.000000	43.054690
895.000000	42.977719
896.000000	42.850559
897.000000	42.761421
898.000000	42.641543
899.000000	42.491512
900.000000	42.384590
901.000000	42.240294
902.000000	42.058875
903.000000	42.020294
904.000000	41.845113
905.000000	41.703549
906.000000	41.588532
907.000000	41.456226
908.000000	41.377671
909.000000	41.231308
910.000000	41.078941
911.000000	40.942120
912.000000	40.764160
913.000000	40.588367
914.000000	40.428765
915.000000	40.296348
916.000000	40.200405
917.000000	40.098660
918.000000	39.923485
919.000000	39.790135
920.000000	39.679757
921.000000	39.616255
922.000000	39.479121
923.000000	39.371309
924.000000	39.269470
925.000000	39.167276
926.000000	39.082254
927.000000	38.980596
928.000000	38.885310
929.000000	38.759531
930.000000	38.609351
931.000000	38.519211
932.000000	38.380503
933.000000	38.271379
934.000000	38.192126
935.000000	38.056281
936.000000	38.002505
937.000000	37.903428
938.000000	37.754711
939.000000	37.680024
940.000000	37.575726
941.000000	37.467195
942.000000	37.404033
943.000000	37.291653
944.000000	37.211881
945.000000	37.181641
946.000000	37.137839
947.000000	37.062591
948.000000	37.004537
949.000000	36.930518
950.000000	36.848402
951.000000	36.770091
952.000000	36.683800
953.000000	36.677744
954.000000	36.615060
955.000000	36.532672
956.000000	36.483055
957.000000	36.420309
958.000000	36.366287
959.000000	36.359047
960.000000	36.355025
961.000000	36.263641
962.000000	36.201199
963.000000	36.117054
964.000000	36.035395
965.000000	36.028452
966.000000	36.026386
967.000000	36.010867
968.000000	35.971043
969.000000	35.963118
970.000000	35.990103
971.000000	35.987470
972.000000	36.009711
973.000000	36.009984
974.000000	35.989561
975.000000	36.005132
976.000000	36.039481
977.000000	36.045629
978.000000	36.066339
979.000000	36.084669
980.000000	36.065519
981.000000	36.034435
982.000000	36.129343
983.000000	36.174652
984.000000	36.181052
985.000000	36.208056
986.000000	36.251808
987.000000	36.298414
988.000000	36.326375
989.000000	36.379719
990.000000	36.455328
991.000000	36.493394
992.000000	36.588671
993.000000	36.637194
994.000000	36.612495
995.000000	36.611671
996.000000	36.704937
997.000000	36.820750
998.000000	36.915654
999.000000	37.045783
1000.000000	37.155724
1001.000000	37.199064
1002.000000	37.241440
1003.000000	37.314267
1004.000000	37.370176
1005.000000	37.390027
1006.000000	37.418893
1007.000000	37.483279
1008.000000	37.567367
1009.000000	37.629906
1010.000000	37.714936
1011.000000	37.783001
1012.000000	37.878981
1013.000000	37.990282
1014.000000	38.065585
1015.000000	38.169558
1016.000000	38.262863
1017.000000	38.282039
1018.000000	38.339693
1019.000000	38.447323
1020.000000	38.534827
1021.000000	38.635519
1022.000000	38.702389
1023.000000	38.777257
1024.000000	38.832027
1025.000000	38.855799
1026.000000	38.904841
1027.000000	38.948730
1028.000000	39.040721
1029.000000	39.134046
1030.000000	39.208858
1031.000000	39.299456
1032.000000	39.370753
1033.000000	39.435605
1034.000000	39.445676
1035.000000	39.457185
1036.000000	39.522271
1037.000000	39.634189
1038.000000	39.756914
1039.000000	39.815225
1040.000000	39.884657
1041.000000	39.973723
1042.000000	39.987194
1043.000000	40.034560
1044.000000	40.120289
1045.000000	40.193057
1046.000000	40.246964
1047.000000	40.279313
1048.000000	40.317777
1049.000000	40.400086
1050.000000	40.431618
1051.000000	40.480420
1052.000000	40.532801
1053.000000	40.596381
1054.000000	40.653714
1055.000000	40.699590
1056.000000	40.746704
1057.000000	40.824006
1058.000000	40.857184
1059.000000	40.907528
1060.000000	40.988632
1061.000000	41.048302
1062.000000	41.111525
1063.000000	41.165274
1064.000000	41.235325
1065.000000	41.341022
1066.000000	41.391623
1067.000000	41.468513
1068.000000	41.563219
1069.000000	41.672127
1070.000000	41.726473
1071.000000	41.776793
1072.000000	41.818972
1073.000000	41.875065
1074.000000	41.943637
1075.000000	42.020776
1076.000000	42.054973
1077.000000	42.149972
1078.000000	42.226775
1079.000000	42.286198
1080.000000	42.342099
1081.000000	42.440878
1082.000000	42.516237
1083.000000	42.580342
1084.000000	42.664892
1085.000000	42.744648
1086.000000	42.775487
1087.000000	42.856941
1088.000000	42.975635
1089.000000	43.063375
1090.000000	43.155802
1091.000000	43.198495
1092.000000	43.237862
1093.000000	43.347579
1094.000000	43.487532
1095.000000	43.604429
1096.000000	43.679827
1097.000000	43.727824
1098.000000	43.803215
1099.000000	43.880179
1100.000000	43.933972
1101.000000	44.021368
1102.000000	44.057745
1103.000000	44.119617
1104.000000	44.171476
1105.000000	44.296067
1106.000000	44.369522
1107.000000	44.435079
1108.000000	44.406528
1109.000000	44.473259
1110.000000	44.531593
1111.000000	44.637873
1112.000000	44.752547
1113.000000	44.868363
1114.000000	44.972051
1115.000000	45.035140
1116.000000	45.131602
1117.000000	45.200218
1118.000000	45.275722
1119.000000	45.310519
1120.000000	45.361557
1121.000000	45.504989
1122.000000	45.578560
1123.000000	45.545059
1124.000000	45.593038
1125.000000	45.729044
1126.000000	45.790145
1127.000000	45.841030
1128.000000	45.869977
1129.000000	45.812201
1130.000000	45.802276
1131.000000	45.866654
1132.000000	45.912516
1133.000000	45.937655
1134.000000	45.914296
1135.000000	45.977801
1136.000000	46.011133
1137.000000	46.107385
1138.000000	46.143531
1139.000000	46.201677
1140.000000	46.223229
1141.000000	46.289190
1142.000000	46.347092
1143.000000	46.421375
1144.000000	46.430065
1145.000000	46.469540
1146.000000	46.426228
1147.000000	46.395161
1148.000000	46.391277
1149.000000	46.358383
1150.000000	46.420602
1151.000000	46.397943
1152.000000	46.398358
1153.000000	46.409070
1154.000000	46.434512
1155.000000	46.434779
1156.000000	46.434232
1157.000000	46.461027
1158.000000	46.517251
1159.000000	46.509773
1160.000000	46.411566
1161.000000	46.443343
1162.000000	46.458886
1163.000000	46.425360
1164.000000	46.542876
1165.000000	46.574567
1166.000000	46.573137
1167.000000	46.600905
1168.000000	46.600714
1169.000000	46.634659
1170.000000	46.589343
1171.000000	46.571204
1172.000000	46.562199
1173.000000	46.533201
1174.000000	46.541604
1175.000000	46.547122
1176.000000	46.591168
1177.000000	46.585618
1178.000000	46.648232
1179.000000	46.670310
1180.000000	46.680963
1181.000000	46.744491
1182.000000	46.784853
1183.000000	46.813983
1184.000000	46.866652
1185.000000	46.832039
1186.000000	46.852469
1187.000000	46.944372
1188.000000	46.939112
1189.000000	46.919953
1190.000000	46.941534
1191.000000	46.911691
1192.000000	46.925049
1193.000000	46.928670
1194.000000	46.968247
1195.000000	47.079335
1196.000000	47.111600
1197.000000	47.140860
1198.000000	47.252796
1199.000000	47.274130
1200.000000	47.294310
1201.000000	47.309660
1202.000000	47.354827
1203.000000	47.350665
1204.000000	47.383482
1205.000000	47.433932
1206.000000	47.451419
1207.000000	47.425935
1208.000000	47.424118
1209.000000	47.377572
1210.000000	47.375431
1211.000000	47.362655
1212.000000	47.349163
1213.000000	47.348763
1214.000000	47.429816
1215.000000	47.473895
1216.000000	47.496791
1217.000000	47.523429
1218.000000	47.535577
1219.000000	47.541444
1220.000000	47.588484
1221.000000	47.588984
1222.000000	47.552792
1223.000000	47.656185
1224.000000	47.724423
1225.000000	47.771794
1226.000000	47.817801
1227.000000	47.818463
1228.000000	47.838346
1229.000000	47.867677
1230.000000	47.813434
1231.000000	47.823751
1232.000000	47.865264
1233.000000	47.900661
1234.000000	47.932056
1235.000000	47.967457
1236.000000	48.018542
1237.000000	47.994495
1238.000000	48.049218
1239.000000	48.096655
1240.000000	48.096863
1241.000000	48.131392
1242.000000	48.107805
1243.000000	48.125459
1244.000000	48.186087
1245.000000	48.235839
1246.000000	48.239953
1247.000000	48.256346
1248.000000	48.244910
1249.000000	48.235949
1250.000000	48.222599
1251.000000	48.229847
1252.000000	48.236044
1253.000000	48.226382
1254.000000	48.235260
1255.000000	48.238317
1256.000000	48.258295
1257.000000	48.278286
1258.000000	48.280269
1259.000000	48.309564
1260.000000	48.304096
1261.000000	48.283730
1262.000000	48.285861
1263.000000	48.332700
1264.000000	48.351747
1265.000000	48.389546
1266.000000	48.397189
1267.000000	48.401279
1268.000000	48.401793
1269.000000	48.363799
1270.000000	48.357951
1271.000000	48.362740
1272.000000	48.391970
1273.000000	48.382883
1274.000000	48.357508
1275.000000	48.378941
1276.000000	48.430152
1277.000000	48.539574
1278.000000	48.617501
1279.000000	48.654666
1280.000000	48.621355
1281.000000	48.595154
1282.000000	48.622802
1283.000000	48.654426
1284.000000	48.657308
1285.000000	48.647832
1286.000000	48.663236
1287.000000	48.734352
1288.000000	48.790757
1289.000000	48.820233
1290.000000	48.854406
1291.000000	48.891696
1292.000000	48.902506
1293.000000	48.872600
1294.000000	48.852830
1295.000000	48.935104
1296.000000	48.995077
1297.000000	49.046296
1298.000000	49.031177
1299.000000	48.995590
1300.000000	48.999543
1301.000000	49.022364
1302.000000	49.023078
1303.000000	49.013836
1304.000000	49.062376
1305.000000	49.100276
1306.000000	49.092683
1307.000000	49.101343
1308.000000	49.119115
1309.000000	49.169094
1310.000000	49.191087
1311.000000	49.172687
1312.000000	49.141441
1313.000000	49.131567
1314.000000	49.149491
1315.000000	49.223328
1316.000000	49.288538
1317.000000	49.268695
1318.000000	49.301672
1319.000000	49.331935
1320.000000	49.352630
1321.000000	49.369398
1322.000000	49.346946
1323.000000	49.334613
1324.000000	49.381474
1325.000000	49.398999
1326.000000	49.394991
1327.000000	49.364322
1328.000000	49.374467
1329.000000	49.375428
1330.000000	49.312218
1331.000000	49.339091
1332.000000	49.357813
1333.000000	49.435680
1334.000000	49.484083
1335.000000	49.433716
1336.000000	49.398250
1337.000000	49.350922
1338.000000	49.268118
1339.000000	49.212477
1340.000000	49.172685
1341.000000	49.175458
1342.000000	49.206908
1343.000000	49.177294
1344.000000	49.166985
1345.000000	49.184571
1346.000000	49.191181
1347.000000	49.211305
1348.000000	49.211736
1349.000000	49.145144
1350.000000	49.090667
1351.000000	49.188471
1352.000000	49.425146
1353.000000	49.477351
1354.000000	49.282544
1355.000000	48.989899
1356.000000	48.777526
1357.000000	48.747140
1358.000000	48.754202
1359.000000	48.793635
1360.000000	48.558065
1361.000000	48.555913
1362.000000	48.948923
1363.000000	49.046712
1364.000000	49.112335
1365.000000	49.517802
1366.000000	49.430079
1367.000000	49.165991
1368.000000	49.132397
1369.000000	48.933647
1370.000000	48.689831
1371.000000	48.612015
1372.000000	48.637354
1373.000000	48.720146
1374.000000	48.712734
1375.000000	48.825116
1376.000000	49.060432
1377.000000	49.069220
1378.000000	49.092849
1379.000000	49.131061
1380.000000	50.413506
1381.000000	50.423948
1382.000000	50.556918
1383.000000	50.419657
1384.000000	50.281863
1385.000000	50.150133
1386.000000	49.948935
1387.000000	49.516696
1388.000000	49.380357
1389.000000	49.428603
1390.000000	49.591538
1391.000000	49.666603
1392.000000	50.050791
1393.000000	50.012292
1394.000000	49.801603
1395.000000	49.959514
1396.000000	50.450833
1397.000000	50.178304
1398.000000	50.073782
1399.000000	49.904447
1400.000000	49.189459
1401.000000	49.224138
1402.000000	49.363774
1403.000000	49.209593
1404.000000	49.343749
1405.000000	49.427185
1406.000000	49.356664
1407.000000	49.387439
1408.000000	49.228951
1409.000000	49.240121
1410.000000	49.017738
1411.000000	48.677361
1412.000000	48.540647
1413.000000	48.444926
1414.000000	48.206040
1415.000000	46.746763
1416.000000	46.553858
1417.000000	46.226927
1418.000000	46.114299
1419.000000	46.101870
1420.000000	45.997501
1421.000000	45.930777
1422.000000	45.949758
1423.000000	45.807662
1424.000000	45.653603
1425.000000	45.551608
1426.000000	45.456324
1427.000000	44.890812
1428.000000	44.698476
1429.000000	44.558926
1430.000000	44.392709
1431.000000	43.686642
1432.000000	43.428821
1433.000000	43.173938
1434.000000	43.055294
1435.000000	43.126156
1436.000000	42.937807
1437.000000	42.759836
1438.000000	42.595307
1439.000000	42.375618
1440.000000	42.306951
1441.000000	42.231093
1442.000000	41.970005
1443.000000	41.867426
1444.000000	41.639814
1445.000000	41.437916
1446.000000	41.261699
1447.000000	41.092369
1448.000000	40.909298
1449.000000	40.781035
1450.000000	40.623769
1451.000000	40.519712
1452.000000	40.407188
1453.000000	40.348522
1454.000000	40.283819
1455.000000	40.338104
1456.000000	40.221502
1457.000000	40.140706
1458.000000	40.054719
1459.000000	40.013845
1460.000000	39.981078
1461.000000	39.942633
1462.000000	39.871490
1463.000000	39.865867
1464.000000	39.865041
1465.000000	39.814158
1466.000000	39.742785
1467.000000	39.616416
1468.000000	39.538206
1469.000000	39.407867
1470.000000	39.335104
1471.000000	39.250068
1472.000000	39.253451
1473.000000	39.257968
1474.000000	39.201473
1475.000000	39.139137
1476.000000	39.082256
1477.000000	39.007486
1478.000000	38.906977
1479.000000	38.792783
1480.000000	38.777408
1481.000000	38.732089
1482.000000	38.694389
1483.000000	38.640183
1484.000000	38.642666
1485.000000	38.612858
1486.000000	38.608079
1487.000000	38.593902
1488.000000	38.571345
1489.000000	38.526863
1490.000000	38.393198
1491.000000	38.320530
1492.000000	38.288302
1493.000000	38.267002
1494.000000	38.280913
1495.000000	38.238967
1496.000000	38.171662
1497.000000	38.112494
1498.000000	38.060900
1499.000000	38.049602
1500.000000	38.044632
1501.000000	38.012092
1502.000000	37.971331
1503.000000	38.000500
1504.000000	38.032507
1505.000000	38.075340
1506.000000	38.044696
1507.000000	37.975872
1508.000000	37.966721
1509.000000	38.000519
1510.000000	38.057300
1511.000000	38.090017
1512.000000	38.132284
1513.000000	38.152974
1514.000000	38.180320
1515.000000	38.206642
1516.000000	38.206032
1517.000000	38.193976
1518.000000	38.249097
1519.000000	38.271152
1520.000000	38.349617
1521.000000	38.353881
1522.000000	38.367989
1523.000000	38.399234
1524.000000	38.407352
1525.000000	38.431487
1526.000000	38.447584
1527.000000	38.455761
1528.000000	38.464876
1529.000000	38.487881
1530.000000	38.504368
1531.000000	38.528993
1532.000000	38.557770
1533.000000	38.574693
1534.000000	38.613675
1535.000000	38.633028
1536.000000	38.686031
1537.000000	38.751139
1538.000000	38.783535
1539.000000	38.814710
1540.000000	38.846359
1541.000000	38.926835
1542.000000	38.986186
1543.000000	38.998992
1544.000000	39.023304
1545.000000	39.050049
1546.000000	39.083249
1547.000000	39.104559
1548.000000	39.145471
1549.000000	39.224667
1550.000000	39.293303
1551.000000	39.385617
1552.000000	39.465704
1553.000000	39.531991
1554.000000	39.583964
1555.000000	39.574946
1556.000000	39.569480
1557.000000	39.554504
1558.000000	39.567977
1559.000000	39.601199
1560.000000	39.667345
1561.000000	39.690027
1562.000000	39.738929
1563.000000	39.757364
1564.000000	39.762448
1565.000000	39.825625
1566.000000	39.902802
1567.000000	39.979918
1568.000000	39.998070
1569.000000	39.960932
1570.000000	39.951211
1571.000000	39.940027
1572.000000	39.955741
1573.000000	40.009710
1574.000000	40.053136
1575.000000	40.032659
1576.000000	40.026334
1577.000000	40.047852
1578.000000	40.072090
1579.000000	40.088025
1580.000000	40.089237
1581.000000	40.059112
1582.000000	40.035777
1583.000000	40.060709
1584.000000	40.061685
1585.000000	40.058038
1586.000000	40.031422
1587.000000	40.053914
1588.000000	40.016703
1589.000000	40.013048
1590.000000	40.043415
1591.000000	40.085560
1592.000000	40.122638
1593.000000	40.161556
1594.000000	40.180169
1595.000000	40.177569
1596.000000	40.200273
1597.000000	40.205826
1598.000000	40.206235
1599.000000	40.193463
1600.000000	40.192109
1601.000000	40.166418
1602.000000	40.130134
1603.000000	40.102122
1604.000000	40.119540
1605.000000	40.088521
1606.000000	40.069562
1607.000000	40.044994
1608.000000	39.999228
1609.000000	40.013949
1610.000000	40.002993
1611.000000	39.982376
1612.000000	40.015558
1613.000000	40.012950
1614.000000	39.971588
1615.000000	39.938621
1616.000000	39.950220
1617.000000	39.955424
1618.000000	39.944720
1619.000000	39.928195
1620.000000	39.932768
1621.000000	39.945598
1622.000000	39.947633
1623.000000	39.962002
1624.000000	39.980889
1625.000000	39.982298
1626.000000	39.979025
1627.000000	40.035455
1628.000000	40.039473
1629.000000	40.106789
1630.000000	40.147024
1631.000000	40.163097
1632.000000	40.104483
1633.000000	40.083978
1634.000000	40.123700
1635.000000	40.126989
1636.000000	40.147901
1637.000000	40.158624
1638.000000	40.175910
1639.000000	40.208036
1640.000000	40.321293
1641.000000	40.399939
1642.000000	40.454880
1643.000000	40.544180
1644.000000	40.517845
1645.000000	40.607387
1646.000000	40.659803
1647.000000	40.673510
1648.000000	40.728456
1649.000000	40.777293
1650.000000	40.813990
1651.000000	40.853614
1652.000000	40.905336
1653.000000	40.935077
1654.000000	40.960286
1655.000000	40.962108
1656.000000	40.978099
1657.000000	40.939918
1658.000000	40.998527
1659.000000	40.968025
1660.000000	40.939210
1661.000000	40.954757
1662.000000	40.921368
1663.000000	40.914124
1664.000000	40.910741
1665.000000	40.895155
1666.000000	40.860509
1667.000000	40.916803
1668.000000	40.987899
1669.000000	40.909054
1670.000000	40.946268
1671.000000	40.918776
1672.000000	40.864947
1673.000000	40.851954
1674.000000	40.819060
1675.000000	40.706189
1676.000000	40.586211
1677.000000	40.508442
1678.000000	40.389524
1679.000000	40.377509
1680.000000	40.264448
1681.000000	40.179537
1682.000000	40.071742
1683.000000	39.989469
1684.000000	39.903052
1685.000000	39.874415
1686.000000	39.804593
1687.000000	39.733064
1688.000000	39.637404
1689.000000	39.574812
1690.000000	39.480453
1691.000000	39.394078
1692.000000	39.323180
1693.000000	39.188400
1694.000000	39.177822
1695.000000	39.190921
1696.000000	39.068977
1697.000000	38.984225
1698.000000	38.932548
1699.000000	38.857017
1700.000000	38.747667
1701.000000	38.713990
1702.000000	38.662848
1703.000000	38.584476
1704.000000	38.593160
1705.000000	38.500214
1706.000000	38.427140
1707.000000	38.426646
1708.000000	38.324215
1709.000000	38.262661
1710.000000	38.238154
1711.000000	38.243793
1712.000000	38.213516
1713.000000	38.194362
1714.000000	38.132087
1715.000000	38.145159
1716.000000	38.134221
1717.000000	38.102495
1718.000000	38.022988
1719.000000	37.993806
1720.000000	37.901109
1721.000000	37.818834
1722.000000	37.784895
1723.000000	37.798185
1724.000000	37.766043
1725.000000	37.745594
1726.000000	37.712853
1727.000000	37.675244
1728.000000	37.674774
1729.000000	37.605797
1730.000000	37.499380
1731.000000	37.537826
1732.000000	37.508158
1733.000000	37.474386
1734.000000	37.394377
1735.000000	37.325680
1736.000000	37.273644
1737.000000	37.230230
1738.000000	37.197120
1739.000000	37.182095
1740.000000	37.149649
1741.000000	37.154861
1742.000000	37.111819
1743.000000	37.145714
1744.000000	37.110077
1745.000000	37.093336
1746.000000	37.074363
1747.000000	37.052363
1748.000000	37.023813
1749.000000	37.016849
1750.000000	36.981886
1751.000000	36.952388
1752.000000	36.989457
1753.000000	37.089533
1754.000000	37.103596
1755.000000	37.116486
1756.000000	37.153452
1757.000000	37.176020
1758.000000	37.180124
1759.000000	37.202849
1760.000000	37.234655
1761.000000	37.233974
1762.000000	37.248262
1763.000000	37.255598
1764.000000	37.252840
1765.000000	37.284748
1766.000000	37.282510
1767.000000	37.323709
1768.000000	37.325358
1769.000000	37.377824
1770.000000	37.448155
1771.000000	37.481196
1772.000000	37.506723
1773.000000	37.517392
1774.000000	37.502370
1775.000000	37.476712
1776.000000	37.448980
1777.000000	37.425480
1778.000000	37.405765
1779.000000	37.432306
1780.000000	37.427514
1781.000000	37.435036
1782.000000	37.461720
1783.000000	37.484740
1784.000000	37.507856
1785.000000	37.510642
1786.000000	37.509422
1787.000000	37.463491
1788.000000	37.382584
1789.000000	37.379355
1790.000000	37.399115
1791.000000	37.388798
1792.000000	37.348222
1793.000000	37.338548
1794.000000	37.325436
1795.000000	37.321937
1796.000000	37.349118
1797.000000	37.381003
1798.000000	37.368404
1799.000000	37.371289
1800.000000	37.359014
1801.000000	37.299189
1802.000000	37.253738
1803.000000	37.255684
1804.000000	37.203767
1805.000000	37.199615
1806.000000	37.178444
1807.000000	37.146668
1808.000000	37.136282
1809.000000	37.157280
1810.000000	37.233499
1811.000000	37.293832
1812.000000	37.328710
1813.000000	37.303679
1814.000000	37.251630
1815.000000	37.295048
1816.000000	37.372182
1817.000000	37.269395
1818.000000	37.124488
1819.000000	36.959125
1820.000000	36.821782
1821.000000	36.787636
1822.000000	36.768435
1823.000000	36.726191
1824.000000	36.700804
1825.000000	36.566631
1826.000000	36.416919
1827.000000	36.333428
1828.000000	36.360492
1829.000000	36.406438
1830.000000	36.357314
1831.000000	36.315210
1832.000000	36.368305
1833.000000	36.396696
1834.000000	36.411210
1835.000000	36.343337
1836.000000	36.357559
1837.000000	36.571785
1838.000000	36.703703
1839.000000	37.038844
1840.000000	37.160028
1841.000000	37.182015
1842.000000	37.171804
1843.000000	37.106662
1844.000000	36.987467
1845.000000	36.896269
1846.000000	36.844952
1847.000000	36.714929
1848.000000	36.632896
1849.000000	36.653342
1850.000000	36.669403
1851.000000	36.635083
1852.000000	36.763544
1853.000000	36.976538
1854.000000	37.107732
1855.000000	37.159540
1856.000000	37.245016
1857.000000	37.243583
1858.000000	37.257453
1859.000000	37.464791
1860.000000	37.741001
1861.000000	37.939150
1862.000000	38.024321
1863.000000	37.901096
1864.000000	37.714401
1865.000000	37.616776
1866.000000	37.576320
1867.000000	37.809287
1868.000000	37.798041
1869.000000	37.793708
1870.000000	37.755170
1871.000000	37.703538
1872.000000	37.383160
1873.000000	37.197047
1874.000000	36.774492
1875.000000	36.630074
1876.000000	36.533198
1877.000000	36.435903
1878.000000	36.428165
1879.000000	36.479360
1880.000000	36.460144
1881.000000	36.435984
1882.000000	36.498308
1883.000000	36.496636
1884.000000	36.430470
1885.000000	36.327297
1886.000000	36.186340
1887.000000	35.990140
1888.000000	35.794184
1889.000000	35.652442
1890.000000	35.571810
1891.000000	35.359673
1892.000000	35.304239
1893.000000	35.241201
1894.000000	34.875295
1895.000000	34.530888
1896.000000	34.284372
1897.000000	33.999805
1898.000000	33.788688
1899.000000	33.817445
1900.000000	33.750633
1901.000000	33.515384
1902.000000	32.849036
1903.000000	32.444837
1904.000000	32.097680
1905.000000	32.033251
1906.000000	31.875534
1907.000000	31.661378
1908.000000	31.439191
1909.000000	31.233099
1910.000000	30.970686
1911.000000	30.806551
1912.000000	30.594686
1913.000000	30.363576
1914.000000	30.069303
1915.000000	29.763528
1916.000000	29.515968
1917.000000	29.255220
1918.000000	29.043609
1919.000000	28.717195
1920.000000	28.421595
1921.000000	28.142921
1922.000000	27.944895
1923.000000	27.610459
1924.000000	27.340036
1925.000000	27.102490
1926.000000	26.792182
1927.000000	26.551348
1928.000000	26.254456
1929.000000	26.034941
1930.000000	25.790315
1931.000000	25.590218
1932.000000	25.435261
1933.000000	25.319517
1934.000000	25.099221
1935.000000	24.941905
1936.000000	24.884867
1937.000000	24.854840
1938.000000	24.837506
1939.000000	24.785488
1940.000000	24.553856
1941.000000	24.368017
1942.000000	24.267228
1943.000000	24.150792
1944.000000	24.021477
1945.000000	23.883946
1946.000000	23.702973
1947.000000	23.633072
1948.000000	23.532938
1949.000000	23.475440
1950.000000	23.489859
1951.000000	23.392475
1952.000000	23.286243
1953.000000	23.259031
1954.000000	23.328345
1955.000000	23.318124
1956.000000	23.291710
1957.000000	23.258965
1958.000000	23.347068
1959.000000	23.376240
1960.000000	23.479148
1961.000000	23.567238
1962.000000	23.574444
1963.000000	23.579995
1964.000000	23.539505
1965.000000	23.632453
1966.000000	23.662044
1967.000000	23.769127
1968.000000	23.848578
1969.000000	23.791539
1970.000000	23.866955
1971.000000	23.892609
1972.000000	23.973406
1973.000000	24.056738
1974.000000	24.140205
1975.000000	24.161631
1976.000000	24.268086
1977.000000	24.383139
1978.000000	24.434816
1979.000000	24.554077
1980.000000	24.621380
1981.000000	24.689626
1982.000000	24.764028
1983.000000	24.897990
1984.000000	24.949396
1985.000000	24.999561
1986.000000	25.049356
1987.000000	25.171110
1988.000000	25.206057
1989.000000	25.223449
1990.000000	25.275556
1991.000000	25.324583
1992.000000	25.405290
1993.000000	25.499397
1994.000000	25.619887
1995.000000	25.638743
1996.000000	25.710923
1997.000000	25.736467
1998.000000	25.815663
1999.000000	25.955376
2000.000000	26.021932
