PE UV       SUBTECH     SPECTRUM    ASCII       PEDS        4.00        
   -1
C.CHRY.6713-TX3.ASC
23/11/29
14:23:42.00
23/11/29
14:23:42.00
Vinicio Soto Monge
C. CHRYSARGYREA INBIOCRI002426713
250,000000
1
Lambda 1050
1050L1511233
PerkinElmer UV WinLab 6.3.2.0749 / 2.02.05 Lambda 900 UV/VIS/NIR, Aug  7 2015 09:38:08

0
0
3350/servo 860,8/2
0
0
UV/VIS
1
1
1
DoubleDePol,CommonBeamDepol,RBeamAtt,SBeamAtt,60mm sphere, WB InGaAs Detector
0
0
0
0
Program
Program
3350/servo 860,8/2
3350/0,4 860,8/0,4
3350/0,4 860,8/0,4
0
20.00
 
 
 
0
 
860,8
319,2
860,8
Front
100
on
S:100 R:100
0
0
0
0
 
0
 
 
 
0
 
 
0
0
0
0
0
 
 
 
 
0
0


0
0
#HDR
-1
-1
#GR
nm
%R
1.0
0.0
2200,000000
-1,000000
1951
8
49,319150
0,212376
#DATA
284.000000	5.321508
285.000000	5.309889
286.000000	5.298311
287.000000	5.287691
288.000000	5.278124
289.000000	5.269181
290.000000	5.259739
291.000000	5.251499
292.000000	5.244289
293.000000	5.238614
294.000000	5.234560
295.000000	5.230897
296.000000	5.225608
297.000000	5.220290
298.000000	5.216797
299.000000	5.212910
300.000000	5.210806
301.000000	5.207871
302.000000	5.205152
303.000000	5.203640
304.000000	5.202100
305.000000	5.200876
306.000000	5.197369
307.000000	5.196791
308.000000	5.196819
309.000000	5.194610
310.000000	5.192855
311.000000	5.191952
312.000000	5.190830
313.000000	5.188865
314.000000	5.185517
315.000000	5.183095
316.000000	5.179954
317.000000	5.170644
318.000000	5.163282
319.000000	5.157403
320.000000	5.151364
321.000000	5.143890
322.000000	5.140383
323.000000	5.131788
324.000000	5.126537
325.000000	5.121642
326.000000	5.116822
327.000000	5.112644
328.000000	5.106289
329.000000	5.099348
330.000000	5.090771
331.000000	5.082910
332.000000	5.077103
333.000000	5.070442
334.000000	5.065876
335.000000	5.059333
336.000000	5.054641
337.000000	5.048530
338.000000	5.042654
339.000000	5.038397
340.000000	5.031556
341.000000	5.027898
342.000000	5.022336
343.000000	5.018238
344.000000	5.015684
345.000000	5.012309
346.000000	5.010392
347.000000	5.008533
348.000000	5.006105
349.000000	5.004978
350.000000	5.003992
351.000000	5.004633
352.000000	5.010913
353.000000	5.015301
354.000000	5.017196
355.000000	5.020105
356.000000	5.025703
357.000000	5.026076
358.000000	5.032316
359.000000	5.035065
360.000000	5.039150
361.000000	5.042290
362.000000	5.043131
363.000000	5.047412
364.000000	5.052109
365.000000	5.057356
366.000000	5.063225
367.000000	5.066334
368.000000	5.071259
369.000000	5.075168
370.000000	5.078129
371.000000	5.080316
372.000000	5.083054
373.000000	5.086536
374.000000	5.088377
375.000000	5.092681
376.000000	5.096010
377.000000	5.099633
378.000000	5.102564
379.000000	5.105929
380.000000	5.109620
381.000000	5.111623
382.000000	5.113943
383.000000	5.117183
384.000000	5.120531
385.000000	5.123436
386.000000	5.125882
387.000000	5.127777
388.000000	5.130626
389.000000	5.133768
390.000000	5.136196
391.000000	5.138207
392.000000	5.140956
393.000000	5.142677
394.000000	5.144487
395.000000	5.145302
396.000000	5.147365
397.000000	5.150439
398.000000	5.151701
399.000000	5.153248
400.000000	5.155498
401.000000	5.157208
402.000000	5.159303
403.000000	5.161070
404.000000	5.163039
405.000000	5.166433
406.000000	5.169539
407.000000	5.173077
408.000000	5.176188
409.000000	5.179847
410.000000	5.182964
411.000000	5.186465
412.000000	5.189060
413.000000	5.191597
414.000000	5.194224
415.000000	5.197098
416.000000	5.200163
417.000000	5.203603
418.000000	5.207416
419.000000	5.211519
420.000000	5.215579
421.000000	5.219800
422.000000	5.224467
423.000000	5.229024
424.000000	5.233642
425.000000	5.238577
426.000000	5.243808
427.000000	5.248993
428.000000	5.254269
429.000000	5.259718
430.000000	5.265419
431.000000	5.271527
432.000000	5.277506
433.000000	5.283690
434.000000	5.290153
435.000000	5.296705
436.000000	5.303445
437.000000	5.310653
438.000000	5.318048
439.000000	5.325562
440.000000	5.333263
441.000000	5.341396
442.000000	5.349623
443.000000	5.357725
444.000000	5.366113
445.000000	5.374918
446.000000	5.383508
447.000000	5.392216
448.000000	5.401235
449.000000	5.410201
450.000000	5.418947
451.000000	5.427912
452.000000	5.437115
453.000000	5.446142
454.000000	5.455152
455.000000	5.464443
456.000000	5.473717
457.000000	5.483184
458.000000	5.492984
459.000000	5.503153
460.000000	5.513321
461.000000	5.523668
462.000000	5.534030
463.000000	5.544525
464.000000	5.555267
465.000000	5.566404
466.000000	5.577490
467.000000	5.588883
468.000000	5.600638
469.000000	5.612759
470.000000	5.625433
471.000000	5.638362
472.000000	5.651463
473.000000	5.665016
474.000000	5.678813
475.000000	5.692985
476.000000	5.707934
477.000000	5.723639
478.000000	5.740280
479.000000	5.757436
480.000000	5.774860
481.000000	5.793115
482.000000	5.812198
483.000000	5.832094
484.000000	5.853529
485.000000	5.876272
486.000000	5.899812
487.000000	5.924822
488.000000	5.951327
489.000000	5.979156
490.000000	6.008646
491.000000	6.039982
492.000000	6.073335
493.000000	6.108628
494.000000	6.146353
495.000000	6.186844
496.000000	6.229744
497.000000	6.275615
498.000000	6.324793
499.000000	6.377288
500.000000	6.433667
501.000000	6.494776
502.000000	6.561202
503.000000	6.633627
504.000000	6.712608
505.000000	6.798973
506.000000	6.893295
507.000000	6.996461
508.000000	7.109476
509.000000	7.234047
510.000000	7.371703
511.000000	7.524673
512.000000	7.696674
513.000000	7.891965
514.000000	8.116192
515.000000	8.375741
516.000000	8.677768
517.000000	9.030739
518.000000	9.443000
519.000000	9.922080
520.000000	10.474109
521.000000	11.101793
522.000000	11.802521
523.000000	12.569944
524.000000	13.394936
525.000000	14.266148
526.000000	15.172807
527.000000	16.105900
528.000000	17.058825
529.000000	18.025741
530.000000	19.002426
531.000000	19.986179
532.000000	20.974578
533.000000	21.964973
534.000000	22.956950
535.000000	23.949497
536.000000	24.941228
537.000000	25.930074
538.000000	26.915800
539.000000	27.896760
540.000000	28.871844
541.000000	29.840709
542.000000	30.801921
543.000000	31.754312
544.000000	32.696888
545.000000	33.628573
546.000000	34.547549
547.000000	35.450303
548.000000	36.331834
549.000000	37.186256
550.000000	38.007033
551.000000	38.786953
552.000000	39.517048
553.000000	40.189212
554.000000	40.795139
555.000000	41.328119
556.000000	41.785937
557.000000	42.171394
558.000000	42.489397
559.000000	42.749139
560.000000	42.963838
561.000000	43.141586
562.000000	43.291380
563.000000	43.420307
564.000000	43.534378
565.000000	43.637133
566.000000	43.731738
567.000000	43.819664
568.000000	43.903467
569.000000	43.982714
570.000000	44.057276
571.000000	44.127971
572.000000	44.196161
573.000000	44.261681
574.000000	44.325267
575.000000	44.386296
576.000000	44.443468
577.000000	44.497625
578.000000	44.548861
579.000000	44.595632
580.000000	44.637126
581.000000	44.671234
582.000000	44.698400
583.000000	44.718114
584.000000	44.730048
585.000000	44.733010
586.000000	44.725450
587.000000	44.705247
588.000000	44.670404
589.000000	44.621039
590.000000	44.558870
591.000000	44.487416
592.000000	44.413768
593.000000	44.346513
594.000000	44.291253
595.000000	44.247464
596.000000	44.215775
597.000000	44.190213
598.000000	44.164906
599.000000	44.133469
600.000000	44.090107
601.000000	44.031939
602.000000	43.954847
603.000000	43.854749
604.000000	43.730688
605.000000	43.581403
606.000000	43.409580
607.000000	43.220768
608.000000	43.022946
609.000000	42.828071
610.000000	42.650361
611.000000	42.497838
612.000000	42.373289
613.000000	42.272431
614.000000	42.188344
615.000000	42.111681
616.000000	42.035366
617.000000	41.951318
618.000000	41.855297
619.000000	41.743260
620.000000	41.614209
621.000000	41.468190
622.000000	41.307787
623.000000	41.138537
624.000000	40.966905
625.000000	40.801567
626.000000	40.649045
627.000000	40.514290
628.000000	40.397126
629.000000	40.296621
630.000000	40.209948
631.000000	40.133051
632.000000	40.060563
633.000000	39.991297
634.000000	39.921509
635.000000	39.850688
636.000000	39.778044
637.000000	39.704294
638.000000	39.631484
639.000000	39.560763
640.000000	39.495265
641.000000	39.436143
642.000000	39.382267
643.000000	39.334511
644.000000	39.290636
645.000000	39.246606
646.000000	39.201532
647.000000	39.155747
648.000000	39.113261
649.000000	39.077461
650.000000	39.053152
651.000000	39.041602
652.000000	39.042902
653.000000	39.058242
654.000000	39.088563
655.000000	39.133199
656.000000	39.190091
657.000000	39.258432
658.000000	39.333892
659.000000	39.409869
660.000000	39.478020
661.000000	39.530883
662.000000	39.559462
663.000000	39.563514
664.000000	39.544717
665.000000	39.510040
666.000000	39.469499
667.000000	39.437409
668.000000	39.421678
669.000000	39.430068
670.000000	39.467434
671.000000	39.531443
672.000000	39.622246
673.000000	39.739811
674.000000	39.879415
675.000000	40.035872
676.000000	40.203393
677.000000	40.375476
678.000000	40.541137
679.000000	40.689110
680.000000	40.810838
681.000000	40.900168
682.000000	40.955348
683.000000	40.981616
684.000000	40.988324
685.000000	40.985058
686.000000	40.982824
687.000000	40.994546
688.000000	41.025786
689.000000	41.082613
690.000000	41.167833
691.000000	41.283643
692.000000	41.426524
693.000000	41.592938
694.000000	41.780391
695.000000	41.983236
696.000000	42.196038
697.000000	42.411771
698.000000	42.624173
699.000000	42.825812
700.000000	43.008566
701.000000	43.169884
702.000000	43.305751
703.000000	43.416032
704.000000	43.505462
705.000000	43.579355
706.000000	43.646304
707.000000	43.711490
708.000000	43.780525
709.000000	43.860639
710.000000	43.956083
711.000000	44.070646
712.000000	44.203771
713.000000	44.353832
714.000000	44.523068
715.000000	44.708024
716.000000	44.906069
717.000000	45.112870
718.000000	45.323071
719.000000	45.530891
720.000000	45.731430
721.000000	45.921138
722.000000	46.095259
723.000000	46.251310
724.000000	46.386417
725.000000	46.501132
726.000000	46.601261
727.000000	46.691099
728.000000	46.774464
729.000000	46.853615
730.000000	46.935413
731.000000	47.023223
732.000000	47.120772
733.000000	47.227326
734.000000	47.343022
735.000000	47.469890
736.000000	47.605169
737.000000	47.747727
738.000000	47.895315
739.000000	48.045078
740.000000	48.194821
741.000000	48.340119
742.000000	48.478919
743.000000	48.608812
744.000000	48.728030
745.000000	48.834728
746.000000	48.927522
747.000000	49.008815
748.000000	49.082981
749.000000	49.150534
750.000000	49.213616
751.000000	49.275340
752.000000	49.339889
753.000000	49.410725
754.000000	49.486338
755.000000	49.565537
756.000000	49.649708
757.000000	49.736897
758.000000	49.828531
759.000000	49.924191
760.000000	50.024667
761.000000	50.125622
762.000000	50.225133
763.000000	50.322300
764.000000	50.416599
765.000000	50.506242
766.000000	50.592138
767.000000	50.670687
768.000000	50.741082
769.000000	50.806721
770.000000	50.868336
771.000000	50.927905
772.000000	50.987568
773.000000	51.047930
774.000000	51.108787
775.000000	51.170984
776.000000	51.234488
777.000000	51.302500
778.000000	51.373350
779.000000	51.445881
780.000000	51.519703
781.000000	51.594359
782.000000	51.673145
783.000000	51.751906
784.000000	51.827627
785.000000	51.901897
786.000000	51.974608
787.000000	52.044341
788.000000	52.108064
789.000000	52.165772
790.000000	52.221596
791.000000	52.275918
792.000000	52.326381
793.000000	52.375505
794.000000	52.422295
795.000000	52.470230
796.000000	52.518825
797.000000	52.571441
798.000000	52.626668
799.000000	52.687578
800.000000	52.754477
801.000000	52.821438
802.000000	52.890702
803.000000	52.963403
804.000000	53.040396
805.000000	53.118389
806.000000	53.193127
807.000000	53.262815
808.000000	53.333378
809.000000	53.406036
810.000000	53.474812
811.000000	53.544832
812.000000	53.609411
813.000000	53.673888
814.000000	53.737277
815.000000	53.802519
816.000000	53.865806
817.000000	53.929118
818.000000	53.995714
819.000000	54.062144
820.000000	54.134815
821.000000	54.208533
822.000000	54.285558
823.000000	54.358584
824.000000	54.432723
825.000000	54.507460
826.000000	54.578253
827.000000	54.656920
828.000000	54.733993
829.000000	54.810139
830.000000	54.880545
831.000000	54.940458
832.000000	55.004821
833.000000	55.068095
834.000000	55.126531
835.000000	55.178421
836.000000	55.227804
837.000000	55.275141
838.000000	55.329159
839.000000	55.379649
840.000000	55.424222
841.000000	55.471752
842.000000	55.525402
843.000000	55.571820
844.000000	55.617289
845.000000	55.666832
846.000000	55.718113
847.000000	55.768318
848.000000	55.809256
849.000000	55.850232
850.000000	55.881105
851.000000	55.920622
852.000000	55.949436
853.000000	55.976322
854.000000	56.004552
855.000000	56.032482
856.000000	56.059238
857.000000	56.062183
858.000000	56.024982
859.000000	56.086029
860.000000	56.119412
861.000000	56.137344
862.000000	56.132686
863.000000	56.147645
864.000000	56.144650
865.000000	56.182429
866.000000	56.185053
867.000000	56.224541
868.000000	56.227574
869.000000	56.286889
870.000000	56.313293
871.000000	56.308445
872.000000	56.297354
873.000000	56.299295
874.000000	56.304577
875.000000	56.315608
876.000000	56.317607
877.000000	56.301100
878.000000	56.332143
879.000000	56.347503
880.000000	56.328593
881.000000	56.327648
882.000000	56.314892
883.000000	56.323444
884.000000	56.323338
885.000000	56.323704
886.000000	56.325838
887.000000	56.312967
888.000000	56.304444
889.000000	56.285831
890.000000	56.262303
891.000000	56.254150
892.000000	56.204081
893.000000	56.220432
894.000000	56.164149
895.000000	56.108546
896.000000	56.091141
897.000000	56.052395
898.000000	56.026239
899.000000	55.997411
900.000000	55.934444
901.000000	55.895898
902.000000	55.793208
903.000000	55.729054
904.000000	55.612209
905.000000	55.528854
906.000000	55.455079
907.000000	55.390918
908.000000	55.340451
909.000000	55.259380
910.000000	55.162692
911.000000	55.076803
912.000000	54.974852
913.000000	54.839747
914.000000	54.728170
915.000000	54.646587
916.000000	54.540298
917.000000	54.454604
918.000000	54.315974
919.000000	54.177917
920.000000	54.044023
921.000000	53.914561
922.000000	53.776177
923.000000	53.650902
924.000000	53.546541
925.000000	53.439977
926.000000	53.292103
927.000000	53.194829
928.000000	53.078600
929.000000	52.907648
930.000000	52.765868
931.000000	52.614315
932.000000	52.501659
933.000000	52.354166
934.000000	52.243896
935.000000	52.101070
936.000000	51.993810
937.000000	51.874002
938.000000	51.731442
939.000000	51.617048
940.000000	51.495084
941.000000	51.388780
942.000000	51.283044
943.000000	51.130443
944.000000	51.010765
945.000000	50.890345
946.000000	50.763292
947.000000	50.696256
948.000000	50.605206
949.000000	50.471342
950.000000	50.335853
951.000000	50.214020
952.000000	50.076728
953.000000	49.999751
954.000000	49.919023
955.000000	49.846054
956.000000	49.778945
957.000000	49.707319
958.000000	49.605425
959.000000	49.485473
960.000000	49.357176
961.000000	49.219039
962.000000	49.127773
963.000000	49.054305
964.000000	49.013497
965.000000	48.964702
966.000000	48.859745
967.000000	48.751664
968.000000	48.677491
969.000000	48.581195
970.000000	48.500894
971.000000	48.396071
972.000000	48.343662
973.000000	48.311537
974.000000	48.256284
975.000000	48.197616
976.000000	48.150978
977.000000	48.097099
978.000000	48.030275
979.000000	47.953043
980.000000	47.909165
981.000000	47.871563
982.000000	47.813122
983.000000	47.743918
984.000000	47.707602
985.000000	47.706889
986.000000	47.685156
987.000000	47.684469
988.000000	47.650843
989.000000	47.619432
990.000000	47.580039
991.000000	47.507480
992.000000	47.493678
993.000000	47.488521
994.000000	47.468726
995.000000	47.458856
996.000000	47.483775
997.000000	47.487977
998.000000	47.478299
999.000000	47.462973
1000.000000	47.460945
1001.000000	47.490264
1002.000000	47.492296
1003.000000	47.472455
1004.000000	47.459156
1005.000000	47.452128
1006.000000	47.464297
1007.000000	47.452264
1008.000000	47.458704
1009.000000	47.432087
1010.000000	47.417863
1011.000000	47.408279
1012.000000	47.401891
1013.000000	47.422932
1014.000000	47.432808
1015.000000	47.439368
1016.000000	47.428262
1017.000000	47.415073
1018.000000	47.438923
1019.000000	47.442551
1020.000000	47.403592
1021.000000	47.407366
1022.000000	47.413794
1023.000000	47.405286
1024.000000	47.397681
1025.000000	47.399897
1026.000000	47.412362
1027.000000	47.407227
1028.000000	47.393600
1029.000000	47.400219
1030.000000	47.416352
1031.000000	47.438192
1032.000000	47.429522
1033.000000	47.447867
1034.000000	47.471912
1035.000000	47.464405
1036.000000	47.475191
1037.000000	47.508242
1038.000000	47.542582
1039.000000	47.583678
1040.000000	47.612192
1041.000000	47.610816
1042.000000	47.630037
1043.000000	47.639058
1044.000000	47.659032
1045.000000	47.658154
1046.000000	47.648478
1047.000000	47.669085
1048.000000	47.667044
1049.000000	47.667256
1050.000000	47.654101
1051.000000	47.685658
1052.000000	47.701124
1053.000000	47.703714
1054.000000	47.713732
1055.000000	47.747832
1056.000000	47.737650
1057.000000	47.726992
1058.000000	47.728478
1059.000000	47.731808
1060.000000	47.743537
1061.000000	47.765782
1062.000000	47.756005
1063.000000	47.766257
1064.000000	47.799612
1065.000000	47.836112
1066.000000	47.848407
1067.000000	47.888667
1068.000000	47.898297
1069.000000	47.899816
1070.000000	47.900629
1071.000000	47.891546
1072.000000	47.886566
1073.000000	47.868556
1074.000000	47.842627
1075.000000	47.830929
1076.000000	47.842122
1077.000000	47.831067
1078.000000	47.816373
1079.000000	47.811990
1080.000000	47.830302
1081.000000	47.852129
1082.000000	47.810472
1083.000000	47.809287
1084.000000	47.831623
1085.000000	47.869488
1086.000000	47.881356
1087.000000	47.911194
1088.000000	47.902972
1089.000000	47.899343
1090.000000	47.899721
1091.000000	47.904474
1092.000000	47.902943
1093.000000	47.894432
1094.000000	47.888887
1095.000000	47.904715
1096.000000	47.878430
1097.000000	47.891444
1098.000000	47.899549
1099.000000	47.880259
1100.000000	47.853838
1101.000000	47.869366
1102.000000	47.866530
1103.000000	47.852919
1104.000000	47.863706
1105.000000	47.889075
1106.000000	47.892726
1107.000000	47.879075
1108.000000	47.862979
1109.000000	47.864632
1110.000000	47.899227
1111.000000	47.929286
1112.000000	47.938800
1113.000000	47.953471
1114.000000	47.953404
1115.000000	47.965978
1116.000000	47.927374
1117.000000	47.953765
1118.000000	47.981267
1119.000000	47.990502
1120.000000	47.997016
1121.000000	47.977824
1122.000000	48.008238
1123.000000	48.025340
1124.000000	48.090857
1125.000000	48.091266
1126.000000	48.061412
1127.000000	48.062142
1128.000000	48.091120
1129.000000	48.132064
1130.000000	48.073612
1131.000000	48.091417
1132.000000	48.098562
1133.000000	48.101874
1134.000000	48.156327
1135.000000	48.140568
1136.000000	48.108008
1137.000000	48.115358
1138.000000	48.100883
1139.000000	48.091121
1140.000000	48.063360
1141.000000	48.073198
1142.000000	48.055110
1143.000000	48.057571
1144.000000	48.064025
1145.000000	48.047133
1146.000000	48.018757
1147.000000	48.027455
1148.000000	48.017911
1149.000000	48.048901
1150.000000	48.010537
1151.000000	48.026945
1152.000000	48.017362
1153.000000	47.993831
1154.000000	47.951103
1155.000000	47.909962
1156.000000	47.887918
1157.000000	47.818815
1158.000000	47.810123
1159.000000	47.769880
1160.000000	47.750139
1161.000000	47.790172
1162.000000	47.770867
1163.000000	47.748972
1164.000000	47.675630
1165.000000	47.701323
1166.000000	47.658287
1167.000000	47.630237
1168.000000	47.651342
1169.000000	47.544938
1170.000000	47.517229
1171.000000	47.477159
1172.000000	47.418199
1173.000000	47.395862
1174.000000	47.331861
1175.000000	47.259436
1176.000000	47.233014
1177.000000	47.232295
1178.000000	47.227218
1179.000000	47.209091
1180.000000	47.159481
1181.000000	47.126406
1182.000000	47.100897
1183.000000	47.061817
1184.000000	46.989563
1185.000000	46.954109
1186.000000	46.932731
1187.000000	46.896927
1188.000000	46.875748
1189.000000	46.873513
1190.000000	46.841828
1191.000000	46.811263
1192.000000	46.793544
1193.000000	46.776752
1194.000000	46.706815
1195.000000	46.673198
1196.000000	46.636840
1197.000000	46.600512
1198.000000	46.561340
1199.000000	46.587782
1200.000000	46.595747
1201.000000	46.613247
1202.000000	46.614432
1203.000000	46.538716
1204.000000	46.547659
1205.000000	46.537672
1206.000000	46.566519
1207.000000	46.573321
1208.000000	46.574954
1209.000000	46.582177
1210.000000	46.614069
1211.000000	46.617187
1212.000000	46.627862
1213.000000	46.638132
1214.000000	46.625312
1215.000000	46.668303
1216.000000	46.689325
1217.000000	46.689021
1218.000000	46.689542
1219.000000	46.697807
1220.000000	46.704470
1221.000000	46.697928
1222.000000	46.726560
1223.000000	46.728985
1224.000000	46.715121
1225.000000	46.734863
1226.000000	46.756062
1227.000000	46.771626
1228.000000	46.777545
1229.000000	46.797648
1230.000000	46.818334
1231.000000	46.821672
1232.000000	46.842592
1233.000000	46.889171
1234.000000	46.902921
1235.000000	46.868371
1236.000000	46.877151
1237.000000	46.875987
1238.000000	46.893412
1239.000000	46.887357
1240.000000	46.889631
1241.000000	46.873758
1242.000000	46.859273
1243.000000	46.847317
1244.000000	46.851899
1245.000000	46.865335
1246.000000	46.873353
1247.000000	46.897971
1248.000000	46.904574
1249.000000	46.918967
1250.000000	46.891674
1251.000000	46.877391
1252.000000	46.860115
1253.000000	46.859340
1254.000000	46.886554
1255.000000	46.921964
1256.000000	46.938862
1257.000000	46.922418
1258.000000	46.894009
1259.000000	46.908519
1260.000000	46.918922
1261.000000	46.925178
1262.000000	46.894853
1263.000000	46.866989
1264.000000	46.866894
1265.000000	46.845791
1266.000000	46.833101
1267.000000	46.828399
1268.000000	46.793832
1269.000000	46.758876
1270.000000	46.755497
1271.000000	46.710177
1272.000000	46.682292
1273.000000	46.689862
1274.000000	46.724064
1275.000000	46.744903
1276.000000	46.737325
1277.000000	46.751400
1278.000000	46.737150
1279.000000	46.700303
1280.000000	46.685900
1281.000000	46.666324
1282.000000	46.624577
1283.000000	46.604224
1284.000000	46.590235
1285.000000	46.596302
1286.000000	46.603906
1287.000000	46.603417
1288.000000	46.613078
1289.000000	46.595437
1290.000000	46.566916
1291.000000	46.526279
1292.000000	46.496412
1293.000000	46.513314
1294.000000	46.516504
1295.000000	46.501438
1296.000000	46.488398
1297.000000	46.485566
1298.000000	46.473815
1299.000000	46.465546
1300.000000	46.473065
1301.000000	46.496424
1302.000000	46.499951
1303.000000	46.490456
1304.000000	46.508050
1305.000000	46.497508
1306.000000	46.504306
1307.000000	46.491737
1308.000000	46.470440
1309.000000	46.437527
1310.000000	46.432112
1311.000000	46.461326
1312.000000	46.460054
1313.000000	46.462643
1314.000000	46.492264
1315.000000	46.517360
1316.000000	46.505144
1317.000000	46.498209
1318.000000	46.487500
1319.000000	46.483872
1320.000000	46.467724
1321.000000	46.462197
1322.000000	46.475229
1323.000000	46.455131
1324.000000	46.435608
1325.000000	46.441487
1326.000000	46.464402
1327.000000	46.466990
1328.000000	46.440364
1329.000000	46.431391
1330.000000	46.397606
1331.000000	46.371472
1332.000000	46.351533
1333.000000	46.353234
1334.000000	46.355437
1335.000000	46.329071
1336.000000	46.284665
1337.000000	46.243768
1338.000000	46.221628
1339.000000	46.185858
1340.000000	46.170991
1341.000000	46.157518
1342.000000	46.159284
1343.000000	46.142582
1344.000000	46.117587
1345.000000	46.072615
1346.000000	46.028431
1347.000000	45.983100
1348.000000	45.966677
1349.000000	45.921559
1350.000000	45.874506
1351.000000	45.812766
1352.000000	45.769086
1353.000000	45.675804
1354.000000	45.635893
1355.000000	45.586829
1356.000000	45.630127
1357.000000	45.601305
1358.000000	45.604180
1359.000000	45.557998
1360.000000	45.561385
1361.000000	45.572223
1362.000000	45.605140
1363.000000	45.577092
1364.000000	45.514817
1365.000000	45.483923
1366.000000	45.524018
1367.000000	45.605559
1368.000000	45.577862
1369.000000	45.582789
1370.000000	45.681600
1371.000000	45.669078
1372.000000	45.609790
1373.000000	45.527249
1374.000000	45.495448
1375.000000	45.454025
1376.000000	45.427109
1377.000000	45.400977
1378.000000	45.377073
1379.000000	45.276715
1380.000000	45.070006
1381.000000	44.924197
1382.000000	45.010210
1383.000000	45.007301
1384.000000	45.071426
1385.000000	45.045599
1386.000000	45.030656
1387.000000	45.132820
1388.000000	45.152224
1389.000000	45.142569
1390.000000	45.157824
1391.000000	45.003343
1392.000000	44.834905
1393.000000	44.729124
1394.000000	44.760708
1395.000000	44.643045
1396.000000	44.443405
1397.000000	44.261850
1398.000000	44.197527
1399.000000	44.145420
1400.000000	44.176503
1401.000000	44.020558
1402.000000	43.829787
1403.000000	43.726179
1404.000000	43.656454
1405.000000	43.431135
1406.000000	43.365043
1407.000000	43.297640
1408.000000	43.226054
1409.000000	43.143264
1410.000000	43.070541
1411.000000	42.929975
1412.000000	42.798012
1413.000000	42.651211
1414.000000	42.673961
1415.000000	42.751656
1416.000000	42.744513
1417.000000	42.502000
1418.000000	42.398195
1419.000000	42.180835
1420.000000	42.054500
1421.000000	41.915002
1422.000000	41.670504
1423.000000	41.592522
1424.000000	41.432256
1425.000000	41.272767
1426.000000	41.154214
1427.000000	41.141914
1428.000000	41.036291
1429.000000	40.857453
1430.000000	40.744574
1431.000000	40.757345
1432.000000	40.694688
1433.000000	40.590194
1434.000000	40.479526
1435.000000	40.281786
1436.000000	40.187791
1437.000000	40.124267
1438.000000	40.040802
1439.000000	39.900006
1440.000000	39.830725
1441.000000	39.705353
1442.000000	39.641336
1443.000000	39.579835
1444.000000	39.472507
1445.000000	39.456161
1446.000000	39.404904
1447.000000	39.336676
1448.000000	39.296937
1449.000000	39.174063
1450.000000	39.115629
1451.000000	39.023584
1452.000000	38.950801
1453.000000	38.845503
1454.000000	38.774661
1455.000000	38.675731
1456.000000	38.635871
1457.000000	38.560098
1458.000000	38.461590
1459.000000	38.397356
1460.000000	38.337950
1461.000000	38.309062
1462.000000	38.231482
1463.000000	38.191299
1464.000000	38.118030
1465.000000	38.064497
1466.000000	37.974915
1467.000000	37.958483
1468.000000	37.928033
1469.000000	37.928663
1470.000000	37.892354
1471.000000	37.852076
1472.000000	37.757669
1473.000000	37.684102
1474.000000	37.601535
1475.000000	37.540244
1476.000000	37.477846
1477.000000	37.398021
1478.000000	37.319010
1479.000000	37.253296
1480.000000	37.109430
1481.000000	37.071695
1482.000000	37.042569
1483.000000	36.993762
1484.000000	36.926194
1485.000000	36.863426
1486.000000	36.863027
1487.000000	36.833164
1488.000000	36.746746
1489.000000	36.714060
1490.000000	36.692243
1491.000000	36.647871
1492.000000	36.643825
1493.000000	36.618720
1494.000000	36.593074
1495.000000	36.570258
1496.000000	36.550141
1497.000000	36.548921
1498.000000	36.519551
1499.000000	36.515790
1500.000000	36.510991
1501.000000	36.505741
1502.000000	36.465402
1503.000000	36.428754
1504.000000	36.362317
1505.000000	36.337394
1506.000000	36.351312
1507.000000	36.375366
1508.000000	36.419031
1509.000000	36.457849
1510.000000	36.460086
1511.000000	36.480841
1512.000000	36.510112
1513.000000	36.555667
1514.000000	36.567617
1515.000000	36.589225
1516.000000	36.626295
1517.000000	36.637951
1518.000000	36.651316
1519.000000	36.687314
1520.000000	36.688107
1521.000000	36.685325
1522.000000	36.729935
1523.000000	36.793420
1524.000000	36.823807
1525.000000	36.852785
1526.000000	36.870408
1527.000000	36.871733
1528.000000	36.862074
1529.000000	36.860844
1530.000000	36.861757
1531.000000	36.874303
1532.000000	36.886900
1533.000000	36.916075
1534.000000	36.933485
1535.000000	36.952132
1536.000000	36.969982
1537.000000	37.012824
1538.000000	37.054444
1539.000000	37.079352
1540.000000	37.116136
1541.000000	37.149315
1542.000000	37.180568
1543.000000	37.170295
1544.000000	37.165039
1545.000000	37.181423
1546.000000	37.163815
1547.000000	37.171333
1548.000000	37.162693
1549.000000	37.195224
1550.000000	37.231349
1551.000000	37.232491
1552.000000	37.251969
1553.000000	37.297048
1554.000000	37.327243
1555.000000	37.363591
1556.000000	37.372752
1557.000000	37.360822
1558.000000	37.365987
1559.000000	37.379051
1560.000000	37.393772
1561.000000	37.435134
1562.000000	37.460201
1563.000000	37.478402
1564.000000	37.532596
1565.000000	37.565309
1566.000000	37.581978
1567.000000	37.605411
1568.000000	37.608306
1569.000000	37.606899
1570.000000	37.611790
1571.000000	37.627688
1572.000000	37.654287
1573.000000	37.635926
1574.000000	37.630906
1575.000000	37.610574
1576.000000	37.569769
1577.000000	37.536209
1578.000000	37.540355
1579.000000	37.574664
1580.000000	37.588881
1581.000000	37.603158
1582.000000	37.616441
1583.000000	37.645607
1584.000000	37.642867
1585.000000	37.631833
1586.000000	37.611941
1587.000000	37.588730
1588.000000	37.548528
1589.000000	37.539437
1590.000000	37.534333
1591.000000	37.533324
1592.000000	37.544977
1593.000000	37.515881
1594.000000	37.525643
1595.000000	37.526111
1596.000000	37.496128
1597.000000	37.518550
1598.000000	37.566578
1599.000000	37.582588
1600.000000	37.574624
1601.000000	37.554056
1602.000000	37.528993
1603.000000	37.538647
1604.000000	37.562649
1605.000000	37.603129
1606.000000	37.621796
1607.000000	37.641925
1608.000000	37.735085
1609.000000	37.795940
1610.000000	37.836206
1611.000000	37.835498
1612.000000	37.878793
1613.000000	37.904861
1614.000000	37.897552
1615.000000	37.939144
1616.000000	37.963097
1617.000000	37.959363
1618.000000	37.965703
1619.000000	37.996345
1620.000000	38.007594
1621.000000	38.055676
1622.000000	38.120386
1623.000000	38.154608
1624.000000	38.130210
1625.000000	38.140659
1626.000000	38.162984
1627.000000	38.184207
1628.000000	38.209421
1629.000000	38.210703
1630.000000	38.210180
1631.000000	38.249447
1632.000000	38.230419
1633.000000	38.222670
1634.000000	38.215450
1635.000000	38.235112
1636.000000	38.286186
1637.000000	38.331787
1638.000000	38.345680
1639.000000	38.375641
1640.000000	38.362079
1641.000000	38.334187
1642.000000	38.346676
1643.000000	38.287268
1644.000000	38.234748
1645.000000	38.229142
1646.000000	38.247664
1647.000000	38.250062
1648.000000	38.280988
1649.000000	38.291835
1650.000000	38.248842
1651.000000	38.289295
1652.000000	38.328020
1653.000000	38.354852
1654.000000	38.334537
1655.000000	38.320711
1656.000000	38.311711
1657.000000	38.312821
1658.000000	38.327376
1659.000000	38.369317
1660.000000	38.398659
1661.000000	38.379739
1662.000000	38.372566
1663.000000	38.361085
1664.000000	38.392403
1665.000000	38.419686
1666.000000	38.388187
1667.000000	38.403450
1668.000000	38.401473
1669.000000	38.367181
1670.000000	38.347052
1671.000000	38.317548
1672.000000	38.272003
1673.000000	38.239053
1674.000000	38.200280
1675.000000	38.126830
1676.000000	38.103081
1677.000000	38.005309
1678.000000	37.968157
1679.000000	37.978674
1680.000000	37.935168
1681.000000	37.901503
1682.000000	37.855982
1683.000000	37.758217
1684.000000	37.692004
1685.000000	37.661826
1686.000000	37.572679
1687.000000	37.484752
1688.000000	37.407830
1689.000000	37.344998
1690.000000	37.288418
1691.000000	37.197700
1692.000000	37.103475
1693.000000	37.010831
1694.000000	36.948151
1695.000000	36.895446
1696.000000	36.833429
1697.000000	36.768679
1698.000000	36.767861
1699.000000	36.703530
1700.000000	36.649472
1701.000000	36.629133
1702.000000	36.598020
1703.000000	36.577740
1704.000000	36.583605
1705.000000	36.559861
1706.000000	36.504475
1707.000000	36.494094
1708.000000	36.498242
1709.000000	36.453717
1710.000000	36.447037
1711.000000	36.424610
1712.000000	36.415593
1713.000000	36.403161
1714.000000	36.343359
1715.000000	36.321878
1716.000000	36.280101
1717.000000	36.253200
1718.000000	36.242951
1719.000000	36.187772
1720.000000	36.126111
1721.000000	36.071273
1722.000000	36.015828
1723.000000	36.003635
1724.000000	36.002135
1725.000000	36.009732
1726.000000	36.002810
1727.000000	35.978809
1728.000000	35.940282
1729.000000	35.889284
1730.000000	35.826969
1731.000000	35.837712
1732.000000	35.807581
1733.000000	35.751861
1734.000000	35.708862
1735.000000	35.665103
1736.000000	35.628153
1737.000000	35.571274
1738.000000	35.472056
1739.000000	35.416817
1740.000000	35.384606
1741.000000	35.357174
1742.000000	35.292157
1743.000000	35.248842
1744.000000	35.227669
1745.000000	35.243340
1746.000000	35.221857
1747.000000	35.223341
1748.000000	35.194962
1749.000000	35.191645
1750.000000	35.149796
1751.000000	35.152216
1752.000000	35.127065
1753.000000	35.117914
1754.000000	35.173907
1755.000000	35.209855
1756.000000	35.249384
1757.000000	35.274436
1758.000000	35.269699
1759.000000	35.293324
1760.000000	35.300852
1761.000000	35.323470
1762.000000	35.344756
1763.000000	35.379129
1764.000000	35.401728
1765.000000	35.422098
1766.000000	35.387262
1767.000000	35.396495
1768.000000	35.407733
1769.000000	35.396252
1770.000000	35.393589
1771.000000	35.372292
1772.000000	35.368662
1773.000000	35.397491
1774.000000	35.402790
1775.000000	35.389584
1776.000000	35.376578
1777.000000	35.399016
1778.000000	35.377024
1779.000000	35.362100
1780.000000	35.340409
1781.000000	35.351998
1782.000000	35.344508
1783.000000	35.355439
1784.000000	35.362240
1785.000000	35.392166
1786.000000	35.403103
1787.000000	35.404588
1788.000000	35.413709
1789.000000	35.391622
1790.000000	35.389418
1791.000000	35.397355
1792.000000	35.435792
1793.000000	35.442606
1794.000000	35.436447
1795.000000	35.432712
1796.000000	35.423203
1797.000000	35.404939
1798.000000	35.396727
1799.000000	35.409910
1800.000000	35.423634
1801.000000	35.439909
1802.000000	35.422007
1803.000000	35.407756
1804.000000	35.448161
1805.000000	35.492929
1806.000000	35.549509
1807.000000	35.567022
1808.000000	35.570954
1809.000000	35.581947
1810.000000	35.618957
1811.000000	35.652702
1812.000000	35.629961
1813.000000	35.621894
1814.000000	35.656685
1815.000000	35.678386
1816.000000	35.669888
1817.000000	35.687995
1818.000000	35.732259
1819.000000	35.777484
1820.000000	35.771943
1821.000000	35.724004
1822.000000	35.698456
1823.000000	35.693327
1824.000000	35.701204
1825.000000	35.782841
1826.000000	35.836862
1827.000000	35.793425
1828.000000	35.777902
1829.000000	35.772556
1830.000000	35.810885
1831.000000	35.816062
1832.000000	35.777218
1833.000000	35.736633
1834.000000	35.711658
1835.000000	35.757117
1836.000000	35.814326
1837.000000	35.816589
1838.000000	35.786241
1839.000000	35.706414
1840.000000	35.620539
1841.000000	35.589116
1842.000000	35.561854
1843.000000	35.493295
1844.000000	35.442992
1845.000000	35.381726
1846.000000	35.372116
1847.000000	35.421545
1848.000000	35.416687
1849.000000	35.372341
1850.000000	35.347544
1851.000000	35.320971
1852.000000	35.275619
1853.000000	35.167687
1854.000000	35.079210
1855.000000	35.066668
1856.000000	35.075603
1857.000000	35.049306
1858.000000	35.007535
1859.000000	34.992361
1860.000000	34.910271
1861.000000	34.837457
1862.000000	34.875780
1863.000000	34.907504
1864.000000	34.877634
1865.000000	34.761181
1866.000000	34.727012
1867.000000	34.817797
1868.000000	34.871368
1869.000000	34.866270
1870.000000	34.775103
1871.000000	34.661070
1872.000000	34.712285
1873.000000	34.738477
1874.000000	34.760599
1875.000000	34.769669
1876.000000	34.812734
1877.000000	34.814388
1878.000000	34.837547
1879.000000	34.788687
1880.000000	34.792369
1881.000000	34.738195
1882.000000	34.631585
1883.000000	34.602262
1884.000000	34.545861
1885.000000	34.449583
1886.000000	34.385237
1887.000000	34.284343
1888.000000	34.217962
1889.000000	34.152405
1890.000000	34.039662
1891.000000	33.933649
1892.000000	33.850516
1893.000000	33.732260
1894.000000	33.588719
1895.000000	33.432028
1896.000000	33.288973
1897.000000	33.120207
1898.000000	32.927355
1899.000000	32.743741
1900.000000	32.617332
1901.000000	32.473467
1902.000000	32.290386
1903.000000	32.083627
1904.000000	31.894480
1905.000000	31.713005
1906.000000	31.542482
1907.000000	31.230021
1908.000000	30.990297
1909.000000	30.751554
1910.000000	30.531902
1911.000000	30.179185
1912.000000	29.906578
1913.000000	29.648998
1914.000000	29.409992
1915.000000	29.114861
1916.000000	28.872264
1917.000000	28.633678
1918.000000	28.327332
1919.000000	28.107927
1920.000000	27.838804
1921.000000	27.555570
1922.000000	27.339627
1923.000000	27.117493
1924.000000	26.857821
1925.000000	26.616450
1926.000000	26.380406
1927.000000	26.150503
1928.000000	25.930797
1929.000000	25.705721
1930.000000	25.505510
1931.000000	25.290337
1932.000000	25.078320
1933.000000	24.891977
1934.000000	24.695410
1935.000000	24.555489
1936.000000	24.365318
1937.000000	24.117302
1938.000000	23.959761
1939.000000	23.779722
1940.000000	23.628415
1941.000000	23.512672
1942.000000	23.445577
1943.000000	23.341201
1944.000000	23.274926
1945.000000	23.169716
1946.000000	23.131095
1947.000000	23.070556
1948.000000	23.029666
1949.000000	23.013321
1950.000000	22.995240
1951.000000	22.978527
1952.000000	22.947602
1953.000000	22.946564
1954.000000	22.869042
1955.000000	22.889245
1956.000000	22.951126
1957.000000	22.939852
1958.000000	22.949794
1959.000000	22.993278
1960.000000	23.028412
1961.000000	23.097784
1962.000000	23.177348
1963.000000	23.238008
1964.000000	23.297978
1965.000000	23.337439
1966.000000	23.372005
1967.000000	23.455362
1968.000000	23.492533
1969.000000	23.582008
1970.000000	23.608534
1971.000000	23.674644
1972.000000	23.756542
1973.000000	23.804453
1974.000000	23.895313
1975.000000	23.945459
1976.000000	24.017142
1977.000000	24.091889
1978.000000	24.176515
1979.000000	24.224750
1980.000000	24.295559
1981.000000	24.367047
1982.000000	24.435334
1983.000000	24.473228
1984.000000	24.523251
1985.000000	24.586968
1986.000000	24.594972
1987.000000	24.639650
1988.000000	24.722846
1989.000000	24.820661
1990.000000	24.873094
1991.000000	24.910203
1992.000000	24.996821
1993.000000	25.031875
1994.000000	25.056429
1995.000000	25.137802
1996.000000	25.213007
1997.000000	25.240259
1998.000000	25.317543
1999.000000	25.367668
2000.000000	25.427657
