PE UV       SUBTECH     SPECTRUM    ASCII       PEDS        4.00        
   -1
CICIMAUCR0235-3.Sample.ASC
24/06/19
16:11:19.00
24/06/19
16:11:19.00
Vinicio Soto Monge
C. resplendens. Sex M. Ventral 
250,000000
1
Lambda 1050
1050L1511233
PerkinElmer UV WinLab 6.3.2.0749 / 2.02.05 Lambda 900 UV/VIS/NIR, Aug  7 2015 09:38:08

0
0
3350/servo 860,8/2
0
0
UV/VIS
1
1
1
DoubleDePol,CommonBeamDepol,RBeamAtt,SBeamAtt,60mm sphere, WB InGaAs Detector
0
0
0
0
Program
Program
3350/servo 860,8/2
3350/0,2 860,8/0,2
3350/0,2 860,8/0,2
0
15.00
 
 
 
0
 
860,8
319,2
860,8
Front
100
on
S:100 R:100
0
0
0
0
 
0
 
 
 
0
 
 
0
0
0
0
0
 
 
 
 
0
0


0
0
#HDR
-1
-1
#GR
nm
%R
1.0
0.0
2500,000000
-1,000000
2251
8
61,572500
4,349800
#DATA
2482.000000	6.147407
2481.000000	6.239178
2480.000000	6.179957
2479.000000	6.144903
2478.000000	6.130098
2477.000000	6.127812
2476.000000	6.176800
2475.000000	6.198463
2474.000000	6.185400
2473.000000	6.187359
2472.000000	6.204233
2471.000000	6.156769
2470.000000	6.141311
2469.000000	6.163737
2468.000000	6.123567
2467.000000	6.139352
2466.000000	6.195524
2465.000000	6.198681
2464.000000	6.179521
2463.000000	6.216534
2462.000000	6.214684
2461.000000	6.208914
2460.000000	6.256487
2459.000000	6.290996
2458.000000	6.280763
2457.000000	6.333343
2456.000000	6.333669
2455.000000	6.366763
2454.000000	6.361538
2453.000000	6.391039
2452.000000	6.432407
2451.000000	6.452873
2450.000000	6.466045
2449.000000	6.473883
2448.000000	6.524286
2447.000000	6.565980
2446.000000	6.613552
2445.000000	6.635216
2444.000000	6.658076
2443.000000	6.688340
2442.000000	6.709350
2441.000000	6.741464
2440.000000	6.787622
2439.000000	6.805693
2438.000000	6.845863
2437.000000	6.851414
2436.000000	6.896810
2435.000000	6.940790
2434.000000	6.947975
2433.000000	6.980198
2432.000000	7.019932
2431.000000	7.033213
2430.000000	7.054659
2429.000000	7.081765
2428.000000	7.132168
2427.000000	7.149695
2426.000000	7.166895
2425.000000	7.179632
2424.000000	7.184748
2423.000000	7.213161
2422.000000	7.233083
2421.000000	7.270313
2420.000000	7.276627
2419.000000	7.302319
2418.000000	7.317886
2417.000000	7.306673
2416.000000	7.330405
2415.000000	7.366220
2414.000000	7.390061
2413.000000	7.395395
2412.000000	7.403669
2411.000000	7.420978
2410.000000	7.437742
2409.000000	7.448628
2408.000000	7.469312
2407.000000	7.477694
2406.000000	7.482920
2405.000000	7.487927
2404.000000	7.496854
2403.000000	7.507631
2402.000000	7.532670
2401.000000	7.552591
2400.000000	7.572186
2399.000000	7.608764
2398.000000	7.622154
2397.000000	7.640769
2396.000000	7.642075
2395.000000	7.642075
2394.000000	7.683769
2393.000000	7.700534
2392.000000	7.697268
2391.000000	7.717625
2390.000000	7.740268
2389.000000	7.738527
2388.000000	7.747998
2387.000000	7.765851
2386.000000	7.771947
2385.000000	7.770532
2384.000000	7.778914
2383.000000	7.781309
2382.000000	7.775539
2381.000000	7.779567
2380.000000	7.775975
2379.000000	7.763891
2378.000000	7.787514
2377.000000	7.798292
2376.000000	7.771076
2375.000000	7.773253
2374.000000	7.765851
2373.000000	7.758557
2372.000000	7.755291
2371.000000	7.744187
2370.000000	7.736132
2369.000000	7.720782
2368.000000	7.712291
2367.000000	7.698466
2366.000000	7.683878
2365.000000	7.659820
2364.000000	7.638592
2363.000000	7.633911
2362.000000	7.610179
2361.000000	7.584923
2360.000000	7.575343
2359.000000	7.560211
2358.000000	7.536589
2357.000000	7.532670
2356.000000	7.511224
2355.000000	7.481069
2354.000000	7.481396
2353.000000	7.477041
2352.000000	7.471381
2351.000000	7.468115
2350.000000	7.470619
2349.000000	7.467462
2348.000000	7.481722
2347.000000	7.496963
2346.000000	7.505019
2345.000000	7.527335
2344.000000	7.529404
2343.000000	7.563695
2342.000000	7.594176
2341.000000	7.587862
2340.000000	7.585467
2339.000000	7.599293
2338.000000	7.619214
2337.000000	7.633475
2336.000000	7.637939
2335.000000	7.635761
2334.000000	7.635326
2333.000000	7.643164
2332.000000	7.656663
2331.000000	7.639789
2330.000000	7.623133
2329.000000	7.610070
2328.000000	7.593850
2327.000000	7.571098
2326.000000	7.550087
2325.000000	7.536806
2324.000000	7.516558
2323.000000	7.480416
2322.000000	7.464958
2321.000000	7.441444
2320.000000	7.401165
2319.000000	7.367962
2318.000000	7.326486
2317.000000	7.294807
2316.000000	7.254964
2315.000000	7.211093
2314.000000	7.187361
2313.000000	7.147300
2312.000000	7.110505
2311.000000	7.064347
2310.000000	7.042902
2309.000000	7.029512
2308.000000	7.005018
2307.000000	6.992826
2306.000000	6.977911
2305.000000	6.972904
2304.000000	6.972577
2303.000000	6.970727
2302.000000	6.989342
2301.000000	7.015469
2300.000000	7.031254
2299.000000	7.082201
2298.000000	7.095155
2297.000000	7.106695
2296.000000	7.161234
2295.000000	7.183115
2294.000000	7.222741
2293.000000	7.262693
2292.000000	7.282832
2291.000000	7.304496
2290.000000	7.336719
2289.000000	7.358927
2288.000000	7.359362
2287.000000	7.358056
2286.000000	7.353701
2285.000000	7.373079
2284.000000	7.376344
2283.000000	7.371119
2282.000000	7.335848
2281.000000	7.342380
2280.000000	7.334433
2279.000000	7.309830
2278.000000	7.282832
2277.000000	7.279784
2276.000000	7.280002
2275.000000	7.282506
2274.000000	7.262475
2273.000000	7.263891
2272.000000	7.252460
2271.000000	7.266394
2270.000000	7.258992
2269.000000	7.272273
2268.000000	7.302428
2267.000000	7.316253
2266.000000	7.352068
2265.000000	7.386142
2264.000000	7.441988
2263.000000	7.513292
2262.000000	7.576541
2261.000000	7.662324
2260.000000	7.735152
2259.000000	7.849456
2258.000000	7.932844
2257.000000	8.057055
2256.000000	8.168965
2255.000000	8.287733
2254.000000	8.412270
2253.000000	8.530494
2252.000000	8.650133
2251.000000	8.752353
2250.000000	8.864699
2249.000000	8.970294
2248.000000	9.090042
2247.000000	9.205217
2246.000000	9.288496
2245.000000	9.395507
2244.000000	9.479113
2243.000000	9.575128
2242.000000	9.654815
2241.000000	9.727643
2240.000000	9.787626
2239.000000	9.844343
2238.000000	9.915212
2237.000000	9.955273
2236.000000	10.005458
2235.000000	10.033762
2234.000000	10.091241
2233.000000	10.122811
2232.000000	10.161021
2231.000000	10.168968
2230.000000	10.184970
2229.000000	10.215996
2228.000000	10.208158
2227.000000	10.238748
2226.000000	10.216105
2225.000000	10.237442
2224.000000	10.230039
2223.000000	10.246695
2222.000000	10.195639
2221.000000	10.196619
2220.000000	10.168206
2219.000000	10.174846
2218.000000	10.142297
2217.000000	10.112578
2216.000000	10.088193
2215.000000	10.085471
2214.000000	10.052921
2213.000000	10.051615
2212.000000	10.030931
2211.000000	9.982706
2210.000000	9.988802
2209.000000	9.963655
2208.000000	9.961042
2207.000000	9.926969
2206.000000	9.920546
2205.000000	9.905958
2204.000000	9.902366
2203.000000	9.870034
2202.000000	9.865462
2201.000000	9.857515
2200.000000	9.831280
2199.000000	9.835743
2198.000000	9.825401
2197.000000	9.805915
2196.000000	9.806677
2195.000000	9.795029
2194.000000	9.804064
2193.000000	9.787735
2192.000000	9.787953
2191.000000	9.768031
2190.000000	9.771406
2189.000000	9.742449
2188.000000	9.756818
2187.000000	9.744952
2186.000000	9.723942
2185.000000	9.707069
2184.000000	9.706307
2183.000000	9.707504
2182.000000	9.665157
2181.000000	9.681486
2180.000000	9.684425
2179.000000	9.662762
2178.000000	9.656230
2177.000000	9.643058
2176.000000	9.628688
2175.000000	9.620959
2174.000000	9.629233
2173.000000	9.635982
2172.000000	9.619653
2171.000000	9.637397
2170.000000	9.645671
2169.000000	9.648392
2168.000000	9.648066
2167.000000	9.650896
2166.000000	9.681486
2165.000000	9.678547
2164.000000	9.671362
2163.000000	9.679309
2162.000000	9.686058
2161.000000	9.706415
2160.000000	9.728950
2159.000000	9.771297
2158.000000	9.789694
2157.000000	9.812991
2156.000000	9.840642
2155.000000	9.856644
2154.000000	9.877872
2153.000000	9.912599
2152.000000	9.944278
2151.000000	9.963328
2150.000000	9.985972
2149.000000	10.034415
2148.000000	10.064243
2147.000000	10.082423
2146.000000	10.119109
2145.000000	10.163960
2144.000000	10.183664
2143.000000	10.215887
2142.000000	10.254533
2141.000000	10.283490
2140.000000	10.304718
2139.000000	10.325946
2138.000000	10.362415
2137.000000	10.402802
2136.000000	10.432630
2135.000000	10.432739
2134.000000	10.438509
2133.000000	10.483033
2132.000000	10.510793
2131.000000	10.511773
2130.000000	10.520808
2129.000000	10.533654
2128.000000	10.565115
2127.000000	10.571102
2126.000000	10.575674
2125.000000	10.587758
2124.000000	10.599297
2123.000000	10.620199
2122.000000	10.616497
2121.000000	10.600821
2120.000000	10.603216
2119.000000	10.606482
2118.000000	10.601801
2117.000000	10.607353
2116.000000	10.603652
2115.000000	10.599515
2114.000000	10.591024
2113.000000	10.590697
2112.000000	10.578069
2111.000000	10.564462
2110.000000	10.555099
2109.000000	10.534851
2108.000000	10.533763
2107.000000	10.532130
2106.000000	10.508833
2105.000000	10.489129
2104.000000	10.473236
2103.000000	10.468119
2102.000000	10.455491
2101.000000	10.441992
2100.000000	10.431542
2099.000000	10.419240
2098.000000	10.401605
2097.000000	10.382881
2096.000000	10.370144
2095.000000	10.369055
2094.000000	10.362088
2093.000000	10.353597
2092.000000	10.344888
2091.000000	10.338574
2090.000000	10.328341
2089.000000	10.313100
2088.000000	10.321047
2087.000000	10.311359
2086.000000	10.296662
2085.000000	10.295138
2084.000000	10.289260
2083.000000	10.275325
2082.000000	10.257799
2081.000000	10.228842
2080.000000	10.217411
2079.000000	10.193026
2078.000000	10.144583
2077.000000	10.121940
2076.000000	10.108114
2075.000000	10.082423
2074.000000	10.053248
2073.000000	10.027666
2072.000000	9.999906
2071.000000	9.953749
2070.000000	9.914450
2069.000000	9.874498
2068.000000	9.849568
2067.000000	9.820829
2066.000000	9.775542
2065.000000	9.743319
2064.000000	9.714580
2063.000000	9.680506
2062.000000	9.650025
2061.000000	9.619326
2060.000000	9.585906
2059.000000	9.556949
2058.000000	9.538224
2057.000000	9.523419
2056.000000	9.522984
2055.000000	9.527991
2054.000000	9.538333
2053.000000	9.547913
2052.000000	9.556078
2051.000000	9.579047
2050.000000	9.604086
2049.000000	9.628688
2048.000000	9.684099
2047.000000	9.753335
2046.000000	9.792089
2045.000000	9.851201
2044.000000	9.911946
2043.000000	9.969207
2042.000000	10.038987
2041.000000	10.098752
2040.000000	10.158844
2039.000000	10.225140
2038.000000	10.278700
2037.000000	10.318870
2036.000000	10.384514
2035.000000	10.457995
2034.000000	10.507854
2033.000000	10.544104
2032.000000	10.592330
2031.000000	10.630976
2030.000000	10.691176
2029.000000	10.707397
2028.000000	10.757146
2027.000000	10.799929
2026.000000	10.814952
2025.000000	10.830846
2024.000000	10.854251
2023.000000	10.888107
2022.000000	10.917499
2021.000000	10.932849
2020.000000	10.952117
2019.000000	10.980203
2018.000000	10.980530
2017.000000	11.002520
2016.000000	11.004044
2015.000000	11.023639
2014.000000	11.012209
2013.000000	11.031260
2012.000000	11.021027
2011.000000	11.020700
2010.000000	11.018196
2009.000000	10.985647
2008.000000	11.004697
2007.000000	10.979441
2006.000000	10.961370
2005.000000	10.941340
2004.000000	10.920765
2003.000000	10.900408
2002.000000	10.893659
2001.000000	10.857625
2000.000000	10.824314
1999.000000	10.789696
1998.000000	10.741579
1997.000000	10.730693
1996.000000	10.688128
1995.000000	10.657103
1994.000000	10.627057
1993.000000	10.579702
1992.000000	10.546717
1991.000000	10.501540
1990.000000	10.459301
1989.000000	10.391154
1988.000000	10.351637
1987.000000	10.320068
1986.000000	10.274128
1985.000000	10.216976
1984.000000	10.181051
1983.000000	10.130104
1982.000000	10.095595
1981.000000	10.039532
1980.000000	10.004696
1979.000000	9.943407
1978.000000	9.881356
1977.000000	9.840642
1976.000000	9.796770
1975.000000	9.749416
1974.000000	9.698686
1973.000000	9.667770
1972.000000	9.626838
1971.000000	9.577197
1970.000000	9.534088
1969.000000	9.482161
1968.000000	9.481399
1967.000000	9.439269
1966.000000	9.373082
1965.000000	9.333891
1964.000000	9.321155
1963.000000	9.280876
1962.000000	9.226119
1961.000000	9.207721
1960.000000	9.156774
1959.000000	9.104629
1958.000000	9.080462
1957.000000	9.043776
1956.000000	9.009593
1955.000000	8.970947
1954.000000	8.926532
1953.000000	8.921089
1952.000000	8.888430
1951.000000	8.825508
1950.000000	8.802865
1949.000000	8.790020
1948.000000	8.744842
1947.000000	8.733085
1946.000000	8.701733
1945.000000	8.677239
1944.000000	8.645560
1943.000000	8.617474
1942.000000	8.622917
1941.000000	8.616385
1940.000000	8.602125
1939.000000	8.612902
1938.000000	8.599621
1937.000000	8.602451
1936.000000	8.594287
1935.000000	8.586122
1934.000000	8.595593
1933.000000	8.617365
1932.000000	8.654814
1931.000000	8.660910
1930.000000	8.661345
1929.000000	8.722308
1928.000000	8.758885
1927.000000	8.775106
1926.000000	8.813207
1925.000000	8.858385
1924.000000	8.935458
1923.000000	8.949502
1922.000000	9.017975
1921.000000	9.109528
1920.000000	9.165592
1919.000000	9.252899
1918.000000	9.331279
1917.000000	9.392568
1916.000000	9.496530
1915.000000	9.566420
1914.000000	9.668532
1913.000000	9.770753
1912.000000	9.914123
1911.000000	10.044321
1910.000000	10.138813
1909.000000	10.270209
1908.000000	10.376022
1907.000000	10.494246
1906.000000	10.669295
1905.000000	10.845324
1904.000000	11.021897
1903.000000	11.192919
1902.000000	11.369710
1901.000000	11.560762
1900.000000	11.756930
1899.000000	11.979334
1898.000000	12.205113
1897.000000	12.435246
1896.000000	12.656561
1895.000000	12.880707
1894.000000	13.085475
1893.000000	13.303416
1892.000000	13.575243
1891.000000	13.868081
1890.000000	14.182255
1889.000000	14.489026
1888.000000	14.779360
1887.000000	15.121947
1886.000000	15.440911
1885.000000	15.786764
1884.000000	16.140455
1883.000000	16.558374
1882.000000	17.014395
1881.000000	17.437431
1880.000000	17.871570
1879.000000	18.254980
1878.000000	18.649059
1877.000000	19.089077
1876.000000	19.477495
1875.000000	19.883330
1874.000000	20.281763
1873.000000	20.660928
1872.000000	21.043467
1871.000000	21.420454
1870.000000	21.772621
1869.000000	22.107697
1868.000000	22.438418
1867.000000	22.672905
1866.000000	22.902059
1865.000000	23.080265
1864.000000	23.257491
1863.000000	23.387037
1862.000000	23.525835
1861.000000	23.679438
1860.000000	23.826075
1859.000000	23.962914
1858.000000	24.110530
1857.000000	24.210138
1856.000000	24.288627
1855.000000	24.336309
1854.000000	24.391284
1853.000000	24.459758
1852.000000	24.476196
1851.000000	24.483816
1850.000000	24.488279
1849.000000	24.487191
1848.000000	24.507439
1847.000000	24.532586
1846.000000	24.524421
1845.000000	24.507112
1844.000000	24.460955
1843.000000	24.407069
1842.000000	24.387582
1841.000000	24.408810
1840.000000	24.424051
1839.000000	24.406198
1838.000000	24.354380
1837.000000	24.317802
1836.000000	24.292764
1835.000000	24.258908
1834.000000	24.217323
1833.000000	24.143188
1832.000000	24.074714
1831.000000	24.027904
1830.000000	23.976957
1829.000000	23.940706
1828.000000	23.884425
1827.000000	23.801472
1826.000000	23.740401
1825.000000	23.690869
1824.000000	23.637962
1823.000000	23.577326
1822.000000	23.542055
1821.000000	23.540640
1820.000000	23.531278
1819.000000	23.502212
1818.000000	23.478589
1817.000000	23.431888
1816.000000	23.407285
1815.000000	23.391391
1814.000000	23.382464
1813.000000	23.385730
1812.000000	23.367986
1811.000000	23.338158
1810.000000	23.308003
1809.000000	23.262390
1808.000000	23.210790
1807.000000	23.160605
1806.000000	23.125551
1805.000000	23.095288
1804.000000	23.046953
1803.000000	22.994373
1802.000000	22.944406
1801.000000	22.903147
1800.000000	22.858188
1799.000000	22.798749
1798.000000	22.748782
1797.000000	22.695004
1796.000000	22.644166
1795.000000	22.625115
1794.000000	22.582006
1793.000000	22.514294
1792.000000	22.462150
1791.000000	22.429600
1790.000000	22.389757
1789.000000	22.336523
1788.000000	22.280024
1787.000000	22.221457
1786.000000	22.178130
1785.000000	22.122611
1784.000000	22.060668
1783.000000	22.004822
1782.000000	21.926224
1781.000000	21.859057
1780.000000	21.804626
1779.000000	21.733213
1778.000000	21.666916
1777.000000	21.596265
1776.000000	21.507543
1775.000000	21.421652
1774.000000	21.322043
1773.000000	21.234628
1772.000000	21.144164
1771.000000	21.045971
1770.000000	20.939504
1769.000000	20.828030
1768.000000	20.715903
1767.000000	20.634257
1766.000000	20.548800
1765.000000	20.471509
1764.000000	20.396612
1763.000000	20.358946
1762.000000	20.339677
1761.000000	20.347407
1760.000000	20.375711
1759.000000	20.416969
1758.000000	20.473359
1757.000000	20.529423
1756.000000	20.566545
1755.000000	20.610198
1754.000000	20.656682
1753.000000	20.700118
1752.000000	20.702077
1751.000000	20.698485
1750.000000	20.701860
1749.000000	20.692171
1748.000000	20.650477
1747.000000	20.601054
1746.000000	20.541724
1745.000000	20.463997
1744.000000	20.362974
1743.000000	20.252153
1742.000000	20.105843
1741.000000	19.960839
1740.000000	19.787750
1739.000000	19.603121
1738.000000	19.439828
1737.000000	19.252913
1736.000000	19.106930
1735.000000	18.999266
1734.000000	18.902488
1733.000000	18.836409
1732.000000	18.813440
1731.000000	18.817141
1730.000000	18.837498
1729.000000	18.893344
1728.000000	18.969438
1727.000000	19.034319
1726.000000	19.103991
1725.000000	19.185964
1724.000000	19.230161
1723.000000	19.288511
1722.000000	19.339458
1721.000000	19.395848
1720.000000	19.445163
1719.000000	19.490667
1718.000000	19.555875
1717.000000	19.607802
1716.000000	19.690754
1715.000000	19.780238
1714.000000	19.886052
1713.000000	19.969984
1712.000000	20.052283
1711.000000	20.121519
1710.000000	20.181937
1709.000000	20.233646
1708.000000	20.229510
1707.000000	20.248234
1706.000000	20.255854
1705.000000	20.221018
1704.000000	20.196851
1703.000000	20.120322
1702.000000	20.070790
1701.000000	19.986204
1700.000000	19.873859
1699.000000	19.746382
1698.000000	19.644379
1697.000000	19.512221
1696.000000	19.426221
1695.000000	19.353066
1694.000000	19.330749
1693.000000	19.323238
1692.000000	19.387031
1691.000000	19.458226
1690.000000	19.570462
1689.000000	19.690754
1688.000000	19.783504
1687.000000	19.873206
1686.000000	19.948538
1685.000000	19.991756
1684.000000	20.061863
1683.000000	20.176494
1682.000000	20.335323
1681.000000	20.593107
1680.000000	20.951043
1679.000000	21.386272
1678.000000	21.807239
1677.000000	22.296027
1676.000000	22.717430
1675.000000	23.131974
1674.000000	23.483488
1673.000000	23.809093
1672.000000	24.109550
1671.000000	24.359932
1670.000000	24.610095
1669.000000	24.832717
1668.000000	25.012665
1667.000000	25.193484
1666.000000	25.343604
1665.000000	25.462045
1664.000000	25.578853
1663.000000	25.688042
1662.000000	25.790698
1661.000000	25.875610
1660.000000	25.953010
1659.000000	26.019742
1658.000000	26.090938
1657.000000	26.129910
1656.000000	26.154077
1655.000000	26.167467
1654.000000	26.195227
1653.000000	26.208073
1652.000000	26.210577
1651.000000	26.206766
1650.000000	26.180531
1649.000000	26.172693
1648.000000	26.142865
1647.000000	26.121854
1646.000000	26.061219
1645.000000	26.029213
1644.000000	25.964550
1643.000000	25.919372
1642.000000	25.893354
1641.000000	25.851987
1640.000000	25.781118
1639.000000	25.715801
1638.000000	25.674543
1637.000000	25.609552
1636.000000	25.550114
1635.000000	25.471734
1634.000000	25.416323
1633.000000	25.348394
1632.000000	25.245193
1631.000000	25.192831
1630.000000	25.127514
1629.000000	25.041187
1628.000000	24.979353
1627.000000	24.887474
1626.000000	24.793527
1625.000000	24.713296
1624.000000	24.632738
1623.000000	24.559692
1622.000000	24.474345
1621.000000	24.414253
1620.000000	24.336744
1619.000000	24.268488
1618.000000	24.187495
1617.000000	24.114340
1616.000000	24.052398
1615.000000	23.976413
1614.000000	23.916212
1613.000000	23.819434
1612.000000	23.770664
1611.000000	23.704150
1610.000000	23.628709
1609.000000	23.558929
1608.000000	23.481855
1607.000000	23.399338
1606.000000	23.355249
1605.000000	23.271970
1604.000000	23.198053
1603.000000	23.125442
1602.000000	23.035849
1601.000000	22.974560
1600.000000	22.880504
1599.000000	22.810180
1598.000000	22.749870
1597.000000	22.669095
1596.000000	22.592130
1595.000000	22.540312
1594.000000	22.481636
1593.000000	22.418387
1592.000000	22.357969
1591.000000	22.296680
1590.000000	22.226247
1589.000000	22.178130
1588.000000	22.118583
1587.000000	22.079610
1586.000000	22.027466
1585.000000	21.976083
1584.000000	21.914794
1583.000000	21.861234
1582.000000	21.824330
1581.000000	21.776322
1580.000000	21.747692
1579.000000	21.721129
1578.000000	21.682810
1577.000000	21.655051
1576.000000	21.639375
1575.000000	21.617384
1574.000000	21.589081
1573.000000	21.576888
1572.000000	21.571227
1571.000000	21.561539
1570.000000	21.548366
1569.000000	21.567090
1568.000000	21.562083
1567.000000	21.554789
1566.000000	21.554789
1565.000000	21.572098
1564.000000	21.575037
1563.000000	21.560777
1562.000000	21.564478
1561.000000	21.562627
1560.000000	21.568397
1559.000000	21.569159
1558.000000	21.561103
1557.000000	21.533561
1556.000000	21.493936
1555.000000	21.467700
1554.000000	21.453875
1553.000000	21.432102
1552.000000	21.401621
1551.000000	21.375930
1550.000000	21.340550
1549.000000	21.295917
1548.000000	21.244643
1547.000000	21.204146
1546.000000	21.167025
1545.000000	21.142857
1544.000000	21.118146
1543.000000	21.079065
1542.000000	21.068723
1541.000000	21.044882
1540.000000	21.011353
1539.000000	20.989580
1538.000000	20.968679
1537.000000	20.962038
1536.000000	20.941028
1535.000000	20.903689
1534.000000	20.877344
1533.000000	20.849911
1532.000000	20.812898
1531.000000	20.777409
1530.000000	20.754657
1529.000000	20.715032
1528.000000	20.662234
1527.000000	20.618580
1526.000000	20.570246
1525.000000	20.543031
1524.000000	20.512005
1523.000000	20.460405
1522.000000	20.413485
1521.000000	20.354156
1520.000000	20.317034
1519.000000	20.281001
1518.000000	20.219494
1517.000000	20.172031
1516.000000	20.127071
1515.000000	20.066762
1514.000000	20.012222
1513.000000	19.961493
1512.000000	19.903796
1511.000000	19.851325
1510.000000	19.795697
1509.000000	19.737673
1508.000000	19.696306
1507.000000	19.644706
1506.000000	19.584288
1505.000000	19.536280
1504.000000	19.484679
1503.000000	19.430140
1502.000000	19.374076
1501.000000	19.315944
1500.000000	19.263037
1499.000000	19.221888
1498.000000	19.178561
1497.000000	19.138609
1496.000000	19.119885
1495.000000	19.081783
1494.000000	19.051520
1493.000000	19.028768
1492.000000	18.993932
1491.000000	18.961927
1490.000000	18.933514
1489.000000	18.914136
1488.000000	18.895848
1487.000000	18.867653
1486.000000	18.856222
1485.000000	18.838260
1484.000000	18.831619
1483.000000	18.820624
1482.000000	18.808432
1481.000000	18.800920
1480.000000	18.799070
1479.000000	18.805384
1478.000000	18.802118
1477.000000	18.789708
1476.000000	18.783176
1475.000000	18.785353
1474.000000	18.804295
1473.000000	18.804622
1472.000000	18.833143
1471.000000	18.854371
1470.000000	18.867870
1469.000000	18.878756
1468.000000	18.876144
1467.000000	18.895630
1466.000000	18.923499
1465.000000	18.937215
1464.000000	18.960620
1463.000000	18.993279
1462.000000	19.016575
1461.000000	19.038783
1460.000000	19.091363
1459.000000	19.143181
1458.000000	19.180412
1457.000000	19.225916
1456.000000	19.279149
1455.000000	19.339894
1454.000000	19.410871
1453.000000	19.471943
1452.000000	19.534103
1451.000000	19.615422
1450.000000	19.704797
1449.000000	19.771094
1448.000000	19.832710
1447.000000	19.909457
1446.000000	19.997308
1445.000000	20.094521
1444.000000	20.176385
1443.000000	20.256072
1442.000000	20.353394
1441.000000	20.447559
1440.000000	20.542377
1439.000000	20.636760
1438.000000	20.747255
1437.000000	20.843706
1436.000000	20.947016
1435.000000	21.048257
1434.000000	21.153308
1433.000000	21.265653
1432.000000	21.402927
1431.000000	21.522784
1430.000000	21.657337
1429.000000	21.793522
1428.000000	21.964979
1427.000000	22.110962
1426.000000	22.272186
1425.000000	22.455727
1424.000000	22.631103
1423.000000	22.838484
1422.000000	23.041075
1421.000000	23.245952
1420.000000	23.434065
1419.000000	23.681289
1418.000000	23.935481
1417.000000	24.174649
1416.000000	24.392590
1415.000000	24.644169
1414.000000	24.932652
1413.000000	25.236811
1412.000000	25.535635
1411.000000	25.785473
1410.000000	26.108573
1409.000000	26.462373
1408.000000	26.840340
1407.000000	27.251183
1406.000000	27.629259
1405.000000	28.045872
1404.000000	28.470650
1403.000000	28.886392
1402.000000	29.313346
1401.000000	29.686959
1400.000000	30.195015
1399.000000	30.683477
1398.000000	31.048054
1397.000000	31.326304
1396.000000	31.695562
1395.000000	32.156917
1394.000000	32.603249
1393.000000	32.898046
1392.000000	33.219405
1391.000000	33.638630
1390.000000	34.056549
1389.000000	34.396959
1388.000000	34.885421
1387.000000	35.399573
1386.000000	35.958142
1385.000000	36.489386
1384.000000	37.034020
1383.000000	37.669444
1382.000000	38.305848
1381.000000	38.920698
1380.000000	39.433109
1379.000000	39.787126
1378.000000	40.073976
1377.000000	40.302912
1376.000000	40.548503
1375.000000	40.801497
1374.000000	41.053729
1373.000000	41.339273
1372.000000	41.675764
1371.000000	42.040559
1370.000000	42.472194
1369.000000	42.804875
1368.000000	43.125472
1367.000000	43.479925
1366.000000	43.788003
1365.000000	44.032179
1364.000000	44.282452
1363.000000	44.491357
1362.000000	44.705487
1361.000000	44.914828
1360.000000	45.116004
1359.000000	45.255456
1358.000000	45.338844
1357.000000	45.453257
1356.000000	45.609909
1355.000000	45.861705
1354.000000	46.255022
1353.000000	46.661402
1352.000000	47.022822
1351.000000	47.544812
1350.000000	48.063211
1349.000000	48.555918
1348.000000	48.970789
1347.000000	49.438349
1346.000000	49.832318
1345.000000	50.223022
1344.000000	50.606650
1343.000000	50.998878
1342.000000	51.326986
1341.000000	51.695265
1340.000000	52.052439
1339.000000	52.401014
1338.000000	52.765264
1337.000000	53.074757
1336.000000	53.389476
1335.000000	53.742840
1334.000000	54.036549
1333.000000	54.332216
1332.000000	54.645193
1331.000000	54.953053
1330.000000	55.238488
1329.000000	55.519459
1328.000000	55.766357
1327.000000	56.027516
1326.000000	56.296839
1325.000000	56.534375
1324.000000	56.760263
1323.000000	56.998451
1322.000000	57.181448
1321.000000	57.402545
1320.000000	57.589896
1319.000000	57.790528
1318.000000	57.970693
1317.000000	58.154560
1316.000000	58.323949
1315.000000	58.490180
1314.000000	58.665665
1313.000000	58.802395
1312.000000	58.934988
1311.000000	59.077270
1310.000000	59.211823
1309.000000	59.346593
1308.000000	59.459918
1307.000000	59.565078
1306.000000	59.670565
1305.000000	59.756675
1304.000000	59.835381
1303.000000	59.897432
1302.000000	59.960899
1301.000000	60.019140
1300.000000	60.074332
1299.000000	60.127457
1298.000000	60.167953
1297.000000	60.189290
1296.000000	60.235121
1295.000000	60.259615
1294.000000	60.288136
1293.000000	60.287483
1292.000000	60.300111
1291.000000	60.307731
1290.000000	60.314916
1289.000000	60.297934
1288.000000	60.286068
1287.000000	60.251885
1286.000000	60.214655
1285.000000	60.182649
1284.000000	60.148576
1283.000000	60.108841
1282.000000	60.061269
1281.000000	60.010866
1280.000000	59.952299
1279.000000	59.898303
1278.000000	59.832007
1277.000000	59.779427
1276.000000	59.729895
1275.000000	59.691575
1274.000000	59.647813
1273.000000	59.613413
1272.000000	59.581190
1271.000000	59.546898
1270.000000	59.508253
1269.000000	59.478642
1268.000000	59.451100
1267.000000	59.397105
1266.000000	59.361616
1265.000000	59.338320
1264.000000	59.288135
1263.000000	59.243937
1262.000000	59.193752
1261.000000	59.154344
1260.000000	59.096539
1259.000000	59.032419
1258.000000	58.984085
1257.000000	58.934770
1256.000000	58.874679
1255.000000	58.812846
1254.000000	58.755258
1253.000000	58.680470
1252.000000	58.601110
1251.000000	58.534813
1250.000000	58.456433
1249.000000	58.350838
1248.000000	58.253624
1247.000000	58.155105
1246.000000	58.034813
1245.000000	57.917678
1244.000000	57.805986
1243.000000	57.678400
1242.000000	57.551903
1241.000000	57.413867
1240.000000	57.289982
1239.000000	57.160437
1238.000000	57.011406
1237.000000	56.854428
1236.000000	56.698538
1235.000000	56.557562
1234.000000	56.406572
1233.000000	56.240884
1232.000000	56.083906
1231.000000	55.914409
1230.000000	55.739251
1229.000000	55.573890
1228.000000	55.391656
1227.000000	55.192984
1226.000000	55.004000
1225.000000	54.824814
1224.000000	54.641274
1223.000000	54.456318
1222.000000	54.256122
1221.000000	54.060280
1220.000000	53.860846
1219.000000	53.665331
1218.000000	53.490499
1217.000000	53.316974
1216.000000	53.135502
1215.000000	52.949131
1214.000000	52.791935
1213.000000	52.651613
1212.000000	52.489845
1211.000000	52.350284
1210.000000	52.203866
1209.000000	52.056903
1208.000000	51.930514
1207.000000	51.805759
1206.000000	51.685794
1205.000000	51.579654
1204.000000	51.504648
1203.000000	51.424635
1202.000000	51.359318
1201.000000	51.298465
1200.000000	51.240986
1199.000000	51.201143
1198.000000	51.120367
1197.000000	50.998443
1196.000000	50.856705
1195.000000	50.698420
1194.000000	50.477758
1193.000000	50.200053
1192.000000	49.880218
1191.000000	49.522716
1190.000000	49.109152
1189.000000	48.709630
1188.000000	48.344291
1187.000000	48.045902
1186.000000	47.868566
1185.000000	47.790077
1184.000000	47.820667
1183.000000	47.976666
1182.000000	48.254045
1181.000000	48.639088
1180.000000	49.074643
1179.000000	49.564410
1178.000000	50.042857
1177.000000	50.481351
1176.000000	50.869006
1175.000000	51.223677
1174.000000	51.541335
1173.000000	51.836349
1172.000000	52.161519
1171.000000	52.475148
1170.000000	52.786383
1169.000000	53.108069
1168.000000	53.442383
1167.000000	53.802170
1166.000000	54.142035
1165.000000	54.495944
1164.000000	54.863460
1163.000000	55.242516
1162.000000	55.625491
1161.000000	56.014997
1160.000000	56.382187
1159.000000	56.758738
1158.000000	57.112429
1157.000000	57.484627
1156.000000	57.820900
1155.000000	58.122882
1154.000000	58.384476
1153.000000	58.606118
1152.000000	58.785957
1151.000000	58.937057
1150.000000	59.066384
1149.000000	59.169476
1148.000000	59.269519
1147.000000	59.385021
1146.000000	59.520554
1145.000000	59.696910
1144.000000	59.927260
1143.000000	60.211607
1142.000000	60.531115
1141.000000	60.868586
1140.000000	61.237299
1139.000000	61.637365
1138.000000	62.043636
1137.000000	62.457092
1136.000000	62.905710
1135.000000	63.372182
1134.000000	63.832557
1133.000000	64.290319
1132.000000	64.654352
1131.000000	65.042661
1130.000000	65.391998
1129.000000	65.690496
1128.000000	65.944469
1127.000000	66.174820
1126.000000	66.357054
1125.000000	66.513488
1124.000000	66.616036
1123.000000	66.725877
1122.000000	66.816232
1121.000000	66.886012
1120.000000	66.922263
1119.000000	66.967441
1118.000000	66.967332
1117.000000	67.011421
1116.000000	67.028730
1115.000000	67.026444
1114.000000	67.008046
1113.000000	66.995200
1112.000000	66.985729
1111.000000	66.981048
1110.000000	66.967767
1109.000000	66.957643
1108.000000	66.935871
1107.000000	66.910071
1106.000000	66.895592
1105.000000	66.882420
1104.000000	66.869465
1103.000000	66.830711
1102.000000	66.802733
1101.000000	66.805346
1100.000000	66.768769
1099.000000	66.740029
1098.000000	66.715644
1097.000000	66.670684
1096.000000	66.654899
1095.000000	66.614838
1094.000000	66.569879
1093.000000	66.532975
1092.000000	66.472774
1091.000000	66.441749
1090.000000	66.382963
1089.000000	66.346168
1088.000000	66.282049
1087.000000	66.207043
1086.000000	66.177324
1085.000000	66.128772
1084.000000	66.058121
1083.000000	65.974624
1082.000000	65.933257
1081.000000	65.871641
1080.000000	65.797942
1079.000000	65.730883
1078.000000	65.660668
1077.000000	65.612877
1076.000000	65.533082
1075.000000	65.454375
1074.000000	65.393195
1073.000000	65.322108
1072.000000	65.264521
1071.000000	65.211614
1070.000000	65.134649
1069.000000	65.070421
1068.000000	64.994435
1067.000000	64.921063
1066.000000	64.853024
1065.000000	64.770399
1064.000000	64.718907
1063.000000	64.646188
1062.000000	64.586749
1061.000000	64.496612
1060.000000	64.421062
1059.000000	64.354003
1058.000000	64.265608
1057.000000	64.176777
1056.000000	64.114835
1055.000000	64.035801
1054.000000	63.953067
1053.000000	63.854874
1052.000000	63.778888
1051.000000	63.721409
1050.000000	63.638675
1049.000000	63.553110
1048.000000	63.489752
1047.000000	63.434233
1046.000000	63.362493
1045.000000	63.282915
1044.000000	63.242528
1043.000000	63.172639
1042.000000	63.098286
1041.000000	63.026111
1040.000000	62.972225
1039.000000	62.916596
1038.000000	62.844204
1037.000000	62.777254
1036.000000	62.706385
1035.000000	62.651628
1034.000000	62.559095
1033.000000	62.488989
1032.000000	62.427917
1031.000000	62.350081
1030.000000	62.250800
1029.000000	62.187878
1028.000000	62.116356
1027.000000	62.034274
1026.000000	61.929114
1025.000000	61.858790
1024.000000	61.759072
1023.000000	61.659900
1022.000000	61.612218
1021.000000	61.505425
1020.000000	61.432161
1019.000000	61.354543
1018.000000	61.281062
1017.000000	61.206492
1016.000000	61.140957
1015.000000	61.074552
1014.000000	61.016093
1013.000000	60.967541
1012.000000	60.912239
1011.000000	60.849753
1010.000000	60.813284
1009.000000	60.794995
1008.000000	60.770175
1007.000000	60.740782
1006.000000	60.725759
1005.000000	60.692121
1004.000000	60.654346
1003.000000	60.640739
1002.000000	60.612326
1001.000000	60.598936
1000.000000	60.569979
999.000000	60.532857
998.000000	60.516963
997.000000	60.502376
996.000000	60.487679
995.000000	60.468084
994.000000	60.441740
993.000000	60.425955
992.000000	60.421274
991.000000	60.396453
990.000000	60.363686
989.000000	60.370109
988.000000	60.341152
987.000000	60.335600
986.000000	60.311324
985.000000	60.296083
984.000000	60.294015
983.000000	60.311541
982.000000	60.305119
981.000000	60.286394
980.000000	60.277032
979.000000	60.275182
978.000000	60.276597
977.000000	60.285959
976.000000	60.276815
975.000000	60.282802
974.000000	60.271372
973.000000	60.267453
972.000000	60.248946
971.000000	60.247966
970.000000	60.259397
969.000000	60.249055
968.000000	60.235774
967.000000	60.242414
966.000000	60.240019
965.000000	60.235121
964.000000	60.238278
963.000000	60.234794
962.000000	60.255587
961.000000	60.251668
960.000000	60.231964
959.000000	60.254934
958.000000	60.284000
957.000000	60.273440
956.000000	60.258635
955.000000	60.264731
954.000000	60.274093
953.000000	60.268868
952.000000	60.244047
951.000000	60.242850
950.000000	60.249273
949.000000	60.245898
948.000000	60.238169
947.000000	60.228698
946.000000	60.210736
945.000000	60.186133
944.000000	60.181670
943.000000	60.170566
942.000000	60.134424
941.000000	60.118748
940.000000	60.107535
939.000000	60.068889
938.000000	60.011955
937.000000	59.987570
936.000000	59.967975
935.000000	59.927805
934.000000	59.891010
933.000000	59.839083
932.000000	59.800001
931.000000	59.784434
930.000000	59.734793
929.000000	59.671871
928.000000	59.648140
927.000000	59.599043
926.000000	59.542871
925.000000	59.492903
924.000000	59.440976
923.000000	59.407665
922.000000	59.357806
921.000000	59.292380
920.000000	59.242413
919.000000	59.181124
918.000000	59.099587
917.000000	59.038080
916.000000	58.967211
915.000000	58.892314
914.000000	58.811213
913.000000	58.728587
912.000000	58.642913
911.000000	58.551251
910.000000	58.475266
909.000000	58.388286
908.000000	58.326561
907.000000	58.256781
906.000000	58.175353
905.000000	58.110254
904.000000	58.056585
903.000000	57.996711
902.000000	57.940865
901.000000	57.873698
900.000000	57.793140
899.000000	57.718897
898.000000	57.671215
897.000000	57.621139
896.000000	57.574546
895.000000	57.509774
894.000000	57.399606
893.000000	57.327322
892.000000	57.247309
891.000000	57.157389
890.000000	57.076505
889.000000	56.993988
888.000000	56.901891
887.000000	56.797493
886.000000	56.697558
885.000000	56.570408
884.000000	56.453491
883.000000	56.326776
882.000000	56.205178
881.000000	56.067904
880.000000	55.936072
879.000000	55.782033
878.000000	55.666640
877.000000	55.496054
876.000000	55.343975
875.000000	55.151617
874.000000	54.910380
873.000000	54.656406
872.000000	54.371080
871.000000	54.143342
870.000000	54.012708
869.000000	53.973191
868.000000	53.979723
867.000000	53.957951
866.000000	53.936396
865.000000	53.932150
864.000000	53.913426
863.000000	53.886102
862.000000	53.857036
861.000000	53.845497
860.000000	53.819152
859.000000	53.817302
858.000000	53.779200
857.000000	53.070900
856.000000	54.261100
855.000000	54.005600
854.000000	54.261100
853.000000	53.766100
852.000000	53.716700
851.000000	54.155100
850.000000	53.970300
849.000000	53.957000
848.000000	53.863900
847.000000	53.770200
846.000000	53.812900
845.000000	53.517100
844.000000	53.461900
843.000000	53.494200
842.000000	53.743200
841.000000	53.332300
840.000000	53.180000
839.000000	53.501500
838.000000	53.100700
837.000000	53.292500
836.000000	52.988400
835.000000	52.932500
834.000000	52.933100
833.000000	52.979200
832.000000	52.776800
831.000000	52.757700
830.000000	52.673900
829.000000	52.397700
828.000000	52.475700
827.000000	52.322700
826.000000	52.305600
825.000000	52.236700
824.000000	52.213900
823.000000	51.888400
822.000000	51.960400
821.000000	51.895100
820.000000	51.727500
819.000000	51.494500
818.000000	51.411800
817.000000	51.209400
816.000000	51.348500
815.000000	51.225800
814.000000	51.078800
813.000000	50.765700
812.000000	50.836100
811.000000	50.974300
810.000000	50.683200
809.000000	50.404400
808.000000	50.555100
807.000000	50.378300
806.000000	50.275000
805.000000	50.084400
804.000000	49.992800
803.000000	49.905200
802.000000	49.878800
801.000000	49.636900
800.000000	49.624800
799.000000	49.505200
798.000000	49.247100
797.000000	49.377900
796.000000	49.161600
795.000000	49.039700
794.000000	49.002900
793.000000	48.872500
792.000000	48.632000
791.000000	48.509300
790.000000	48.540500
789.000000	48.550800
788.000000	48.223800
787.000000	48.159600
786.000000	47.897100
785.000000	47.794900
784.000000	47.653700
783.000000	47.492200
782.000000	47.439000
781.000000	47.448000
780.000000	47.234100
779.000000	47.056200
778.000000	46.939200
777.000000	46.756800
776.000000	46.674900
775.000000	46.472200
774.000000	46.402900
773.000000	46.284200
772.000000	46.065400
771.000000	45.951200
770.000000	45.747800
769.000000	45.751300
768.000000	45.560000
767.000000	45.450600
766.000000	45.289400
765.000000	45.080200
764.000000	44.983100
763.000000	44.883400
762.000000	44.691400
761.000000	44.522900
760.000000	44.426400
759.000000	44.286100
758.000000	44.009800
757.000000	43.881800
756.000000	43.761500
755.000000	43.572100
754.000000	43.417500
753.000000	43.269000
752.000000	43.081700
751.000000	42.968400
750.000000	42.758300
749.000000	42.588100
748.000000	42.543000
747.000000	42.269800
746.000000	42.097800
745.000000	41.977500
744.000000	41.781900
743.000000	41.562000
742.000000	41.418100
741.000000	41.257300
740.000000	41.036800
739.000000	40.855100
738.000000	40.569500
737.000000	40.416600
736.000000	40.246300
735.000000	40.036000
734.000000	39.849000
733.000000	39.666100
732.000000	39.406600
731.000000	39.220800
730.000000	38.992700
729.000000	38.783700
728.000000	38.570500
727.000000	38.362000
726.000000	38.146200
725.000000	37.978400
724.000000	37.781300
723.000000	37.552400
722.000000	37.308500
721.000000	37.060700
720.000000	36.755100
719.000000	36.526900
718.000000	36.299200
717.000000	36.095800
716.000000	35.862900
715.000000	35.604200
714.000000	35.371300
713.000000	35.154000
712.000000	34.914900
711.000000	34.629200
710.000000	34.389000
709.000000	34.151900
708.000000	33.908100
707.000000	33.660100
706.000000	33.383500
705.000000	33.127200
704.000000	32.932900
703.000000	32.666800
702.000000	32.420500
701.000000	32.163100
700.000000	31.927000
699.000000	31.670000
698.000000	31.427700
697.000000	31.188900
696.000000	30.982400
695.000000	30.738100
694.000000	30.531100
693.000000	30.329100
692.000000	30.066000
691.000000	29.835500
690.000000	29.615500
689.000000	29.380300
688.000000	29.191600
687.000000	28.990200
686.000000	28.764000
685.000000	28.534900
684.000000	28.335900
683.000000	28.135000
682.000000	27.950600
681.000000	27.725200
680.000000	27.526200
679.000000	27.359700
678.000000	27.165400
677.000000	26.978200
676.000000	26.800600
675.000000	26.595900
674.000000	26.442100
673.000000	26.290800
672.000000	26.111600
671.000000	25.969600
670.000000	25.798900
669.000000	25.633800
668.000000	25.470400
667.000000	25.337600
666.000000	25.196400
665.000000	25.055600
664.000000	24.914900
663.000000	24.780100
662.000000	24.663200
661.000000	24.536100
660.000000	24.395700
659.000000	24.270700
658.000000	24.146100
657.000000	24.014100
656.000000	23.900100
655.000000	23.794900
654.000000	23.684400
653.000000	23.577700
652.000000	23.483300
651.000000	23.390600
650.000000	23.292400
649.000000	23.214900
648.000000	23.144000
647.000000	23.049800
646.000000	22.967100
645.000000	22.899700
644.000000	22.824600
643.000000	22.756600
642.000000	22.676100
641.000000	22.598100
640.000000	22.556000
639.000000	22.503300
638.000000	22.450800
637.000000	22.413400
636.000000	22.365000
635.000000	22.338900
634.000000	22.303300
633.000000	22.267700
632.000000	22.240600
631.000000	22.226000
630.000000	22.231500
629.000000	22.230800
628.000000	22.214700
627.000000	22.189000
626.000000	22.187500
625.000000	22.193600
624.000000	22.210500
623.000000	22.235600
622.000000	22.255800
621.000000	22.263900
620.000000	22.289500
619.000000	22.342800
618.000000	22.381400
617.000000	22.416700
616.000000	22.467700
615.000000	22.501900
614.000000	22.538600
613.000000	22.593200
612.000000	22.655300
611.000000	22.709800
610.000000	22.784200
609.000000	22.842900
608.000000	22.890500
607.000000	22.960900
606.000000	23.037200
605.000000	23.102800
604.000000	23.182000
603.000000	23.263000
602.000000	23.335900
601.000000	23.402100
600.000000	23.485500
599.000000	23.564100
598.000000	23.636600
597.000000	23.714700
596.000000	23.798800
595.000000	23.902000
594.000000	23.980500
593.000000	24.048200
592.000000	24.123300
591.000000	24.198000
590.000000	24.281400
589.000000	24.346600
588.000000	24.410800
587.000000	24.489400
586.000000	24.562400
585.000000	24.638200
584.000000	24.699400
583.000000	24.763700
582.000000	24.820800
581.000000	24.870800
580.000000	24.922100
579.000000	24.981100
578.000000	25.039900
577.000000	25.078300
576.000000	25.123400
575.000000	25.152000
574.000000	25.167100
573.000000	25.210200
572.000000	25.225500
571.000000	25.234400
570.000000	25.254200
569.000000	25.253700
568.000000	25.234300
567.000000	25.222700
566.000000	25.232600
565.000000	25.218200
564.000000	25.173000
563.000000	25.146700
562.000000	25.110800
561.000000	25.079100
560.000000	25.033600
559.000000	24.893500
558.000000	24.808000
557.000000	24.735500
556.000000	24.674900
555.000000	24.588700
554.000000	24.494400
553.000000	24.382400
552.000000	24.272400
551.000000	24.140300
550.000000	24.036900
549.000000	23.899700
548.000000	23.754900
547.000000	23.623500
546.000000	23.471400
545.000000	23.339500
544.000000	23.149100
543.000000	22.970500
542.000000	22.785500
541.000000	22.619400
540.000000	22.399100
539.000000	22.219600
538.000000	22.011700
537.000000	21.814400
536.000000	21.583600
535.000000	21.374100
534.000000	21.149800
533.000000	20.904800
532.000000	20.657100
531.000000	20.409900
530.000000	20.166600
529.000000	19.920700
528.000000	19.664600
527.000000	19.393300
526.000000	19.132100
525.000000	18.860000
524.000000	18.602200
523.000000	18.329700
522.000000	18.031200
521.000000	17.769800
520.000000	17.502900
519.000000	17.216400
518.000000	16.962900
517.000000	16.678400
516.000000	16.401200
515.000000	16.139700
514.000000	15.874600
513.000000	15.633000
512.000000	15.388200
511.000000	15.151700
510.000000	14.891000
509.000000	14.691200
508.000000	14.457000
507.000000	14.228600
506.000000	14.027100
505.000000	13.834300
504.000000	13.646000
503.000000	13.445900
502.000000	13.273300
501.000000	13.089300
500.000000	12.936900
499.000000	12.775400
498.000000	12.639100
497.000000	12.500100
496.000000	12.353900
495.000000	12.223800
494.000000	12.116500
493.000000	12.006900
492.000000	11.889200
491.000000	11.784700
490.000000	11.700800
489.000000	11.602100
488.000000	11.538900
487.000000	11.445900
486.000000	11.362700
485.000000	11.295100
484.000000	11.227800
483.000000	11.160900
482.000000	11.094500
481.000000	11.021200
480.000000	10.957500
479.000000	10.871200
478.000000	10.804500
477.000000	10.729400
476.000000	10.674600
475.000000	10.609800
474.000000	10.540300
473.000000	10.482300
472.000000	10.425800
471.000000	10.385100
470.000000	10.323200
469.000000	10.268500
468.000000	10.212400
467.000000	10.165700
466.000000	10.123600
465.000000	10.102600
464.000000	10.043300
463.000000	10.015100
462.000000	9.980500
461.000000	9.923100
460.000000	9.894100
459.000000	9.863700
458.000000	9.826600
457.000000	9.799300
456.000000	9.769900
455.000000	9.733000
454.000000	9.712500
453.000000	9.698900
452.000000	9.639000
451.000000	9.617300
450.000000	9.583800
449.000000	9.560900
448.000000	9.530100
447.000000	9.516200
446.000000	9.468600
445.000000	9.436500
444.000000	9.417100
443.000000	9.379900
442.000000	9.347700
441.000000	9.313000
440.000000	9.269400
439.000000	9.251700
438.000000	9.215300
437.000000	9.165700
436.000000	9.143200
435.000000	9.120300
434.000000	9.060300
433.000000	9.030800
432.000000	8.988300
431.000000	8.961400
430.000000	8.909300
429.000000	8.881800
428.000000	8.853400
427.000000	8.811700
426.000000	8.778100
425.000000	8.738300
424.000000	8.695300
423.000000	8.680000
422.000000	8.625300
421.000000	8.596100
420.000000	8.557900
419.000000	8.515900
418.000000	8.443500
417.000000	8.390300
416.000000	8.356600
415.000000	8.322600
414.000000	8.270200
413.000000	8.221000
412.000000	8.173000
411.000000	8.134400
410.000000	8.075100
409.000000	8.018800
408.000000	7.957500
407.000000	7.907300
406.000000	7.841000
405.000000	7.783900
404.000000	7.726500
403.000000	7.655400
402.000000	7.593000
401.000000	7.544200
400.000000	7.476000
399.000000	7.409800
398.000000	7.321000
397.000000	7.250600
396.000000	7.183300
395.000000	7.095600
394.000000	7.041000
393.000000	6.964000
392.000000	6.877800
391.000000	6.804500
390.000000	6.729500
389.000000	6.657900
388.000000	6.569400
387.000000	6.507200
386.000000	6.429300
385.000000	6.339300
384.000000	6.267500
383.000000	6.201300
382.000000	6.118500
381.000000	6.043700
380.000000	5.999700
379.000000	5.934800
378.000000	5.867200
377.000000	5.783300
376.000000	5.702900
375.000000	5.519500
374.000000	5.231800
373.000000	5.187700
372.000000	5.276000
371.000000	5.096500
370.000000	5.113100
369.000000	5.093900
368.000000	5.084300
367.000000	5.072400
366.000000	4.932000
365.000000	4.931500
364.000000	4.977500
363.000000	4.993800
362.000000	4.921700
361.000000	4.882300
360.000000	4.912400
359.000000	4.808800
358.000000	4.751900
357.000000	4.737400
356.000000	4.700900
355.000000	4.658900
354.000000	4.733900
353.000000	4.814000
352.000000	4.712300
351.000000	4.721100
350.000000	4.823800
349.000000	4.860500
348.000000	4.772600
347.000000	4.689800
346.000000	4.634400
345.000000	4.522900
344.000000	4.553900
343.000000	4.621200
342.000000	4.674500
341.000000	4.703700
340.000000	4.650100
339.000000	4.542600
338.000000	4.542700
337.000000	4.633400
336.000000	4.349800
335.000000	4.487800
334.000000	4.660700
333.000000	4.461800
332.000000	4.564900
331.000000	4.719000
330.000000	4.860200
329.000000	4.757400
328.000000	4.632900
327.000000	4.887400
326.000000	5.100200
325.000000	4.843700
324.000000	4.610800
323.000000	4.773800
322.000000	4.997100
321.000000	5.169100
320.000000	5.313500
319.000000	5.074200
318.000000	5.154100
317.000000	5.369800
316.000000	4.830000
315.000000	4.410300
314.000000	4.427300
313.000000	4.438400
312.000000	4.426100
311.000000	4.398500
310.000000	4.437900
309.000000	4.432400
308.000000	4.437800
307.000000	4.474200
306.000000	4.483600
305.000000	4.457500
304.000000	4.468000
303.000000	4.458200
302.000000	4.431100
301.000000	4.426000
300.000000	4.465700
299.000000	4.458500
298.000000	4.432500
297.000000	4.452100
296.000000	4.470200
295.000000	4.467400
294.000000	4.422100
293.000000	4.435400
292.000000	4.461600
291.000000	4.464700
290.000000	4.462100
289.000000	4.457800
288.000000	4.433900
287.000000	4.444200
286.000000	4.454000
285.000000	4.448200
284.000000	4.470000
283.000000	4.473100
282.000000	4.477400
281.000000	4.494900
280.000000	4.519900
279.000000	4.484900
278.000000	4.492100
277.000000	4.494200
276.000000	4.478500
275.000000	4.527500
274.000000	4.515900
273.000000	4.526700
272.000000	4.525700
271.000000	4.558100
270.000000	4.580700
269.000000	4.577300
268.000000	4.581900
267.000000	4.613000
266.000000	4.609200
265.000000	4.622400
264.000000	4.655700
263.000000	4.642400
262.000000	4.682300
261.000000	4.745900
260.000000	4.736400
259.000000	4.735600
258.000000	4.739100
257.000000	4.809300
256.000000	4.757100
255.000000	4.762900
254.000000	4.801600
253.000000	4.812800
252.000000	4.835100
251.000000	4.795200
250.000000	4.852900
