PE UV       SUBTECH     SPECTRUM    ASCII       PEDS        4.00        
   -1
CICIMAUCR0201-1.ASC
24/06/06
12:06:02.00
24/06/06
12:06:02.00
Vinicio Soto Monge
C. cupreomarginata. Sex F. Ventral
250,000000
1
Lambda 1050
1050L1511233
PerkinElmer UV WinLab 6.3.2.0749 / 2.02.05 Lambda 900 UV/VIS/NIR, Aug  7 2015 09:38:08

0
0
3350/servo 860,8/2
0
0
UV/VIS
1
1
1
DoubleDePol,CommonBeamDepol,RBeamAtt,SBeamAtt,60mm sphere, WB InGaAs Detector
0
0
0
0
Program
Program
3350/servo 860,8/2
3350/0,2 860,8/0,2
3350/0,2 860,8/0,2
0
15.00
 
 
 
0
 
860,8
319,2
860,8
Front
100
on
S:100 R:100
0
0
0
0
 
0
 
 
 
0
 
 
0
0
0
0
0
 
 
 
 
0
0


0
0
#HDR
-1
-1
#GR
nm
%R
1.0
0.0
2500,000000
-1,000000
2251
8
48,916300
4,023100
#DATA
2500.000000	6.108975
2499.000000	6.214632
2498.000000	6.146900
2497.000000	6.158614
2496.000000	6.137390
2495.000000	6.110483
2494.000000	6.109091
2493.000000	6.056437
2492.000000	6.069194
2491.000000	6.106308
2490.000000	6.075573
2489.000000	6.058524
2488.000000	6.056901
2487.000000	6.036024
2486.000000	6.050406
2485.000000	6.005754
2484.000000	5.917957
2483.000000	5.857068
2482.000000	5.966669
2481.000000	5.938254
2480.000000	5.963885
2479.000000	5.962841
2478.000000	5.914246
2477.000000	5.872030
2476.000000	5.904156
2475.000000	5.948112
2474.000000	5.931063
2473.000000	5.897893
2472.000000	5.910303
2471.000000	5.909839
2470.000000	5.923060
2469.000000	5.879336
2468.000000	5.892442
2467.000000	5.922133
2466.000000	5.936282
2465.000000	5.936050
2464.000000	5.922829
2463.000000	5.942429
2462.000000	5.909143
2461.000000	5.959362
2460.000000	5.946952
2459.000000	5.955303
2458.000000	6.016772
2457.000000	6.000303
2456.000000	6.006450
2455.000000	6.011437
2454.000000	6.034285
2453.000000	6.070354
2452.000000	6.065599
2451.000000	6.091926
2450.000000	6.108511
2449.000000	6.138666
2448.000000	6.164065
2447.000000	6.195264
2446.000000	6.243395
2445.000000	6.246527
2444.000000	6.284220
2443.000000	6.317042
2442.000000	6.323073
2441.000000	6.325045
2440.000000	6.364130
2439.000000	6.404722
2438.000000	6.425135
2437.000000	6.449606
2436.000000	6.495070
2435.000000	6.521281
2434.000000	6.506088
2433.000000	6.516642
2432.000000	6.562570
2431.000000	6.581011
2430.000000	6.619400
2429.000000	6.631346
2428.000000	6.656861
2427.000000	6.676578
2426.000000	6.690959
2425.000000	6.701629
2424.000000	6.731900
2423.000000	6.754632
2422.000000	6.765766
2421.000000	6.743962
2420.000000	6.760315
2419.000000	6.786294
2418.000000	6.802183
2417.000000	6.843356
2416.000000	6.842660
2415.000000	6.841732
2414.000000	6.863884
2413.000000	6.865044
2412.000000	6.870727
2411.000000	6.894851
2410.000000	6.930340
2409.000000	6.944606
2408.000000	6.941242
2407.000000	6.936951
2406.000000	6.954696
2405.000000	6.969077
2404.000000	6.985430
2403.000000	7.021616
2402.000000	7.055714
2401.000000	7.067428
2400.000000	7.103845
2399.000000	7.132956
2398.000000	7.127969
2397.000000	7.138059
2396.000000	7.153368
2395.000000	7.179812
2394.000000	7.199992
2393.000000	7.214721
2392.000000	7.234902
2391.000000	7.244528
2390.000000	7.253922
2389.000000	7.261113
2388.000000	7.263665
2387.000000	7.269348
2386.000000	7.283265
2385.000000	7.313188
2384.000000	7.326757
2383.000000	7.327453
2382.000000	7.325830
2381.000000	7.326293
2380.000000	7.329541
2379.000000	7.330817
2378.000000	7.338471
2377.000000	7.336384
2376.000000	7.317711
2375.000000	7.323626
2374.000000	7.328381
2373.000000	7.314811
2372.000000	7.319799
2371.000000	7.330353
2370.000000	7.329657
2369.000000	7.308665
2368.000000	7.312376
2367.000000	7.298342
2366.000000	7.267260
2365.000000	7.257518
2364.000000	7.253690
2363.000000	7.257054
2362.000000	7.237453
2361.000000	7.210894
2360.000000	7.196397
2359.000000	7.183291
2358.000000	7.161139
2357.000000	7.142466
2356.000000	7.150933
2355.000000	7.151629
2354.000000	7.147801
2353.000000	7.135856
2352.000000	7.141191
2351.000000	7.145482
2350.000000	7.149541
2349.000000	7.150353
2348.000000	7.159515
2347.000000	7.183871
2346.000000	7.213330
2345.000000	7.224928
2344.000000	7.235134
2343.000000	7.248123
2342.000000	7.261809
2341.000000	7.288020
2340.000000	7.302982
2339.000000	7.309244
2338.000000	7.319799
2337.000000	7.332092
2336.000000	7.333484
2335.000000	7.342067
2334.000000	7.342067
2333.000000	7.338703
2332.000000	7.345082
2331.000000	7.321654
2330.000000	7.311912
2329.000000	7.316551
2328.000000	7.315391
2327.000000	7.281641
2326.000000	7.255778
2325.000000	7.254386
2324.000000	7.225623
2323.000000	7.199412
2322.000000	7.185495
2321.000000	7.156848
2320.000000	7.127853
2319.000000	7.093523
2318.000000	7.062209
2317.000000	7.024399
2316.000000	6.989838
2315.000000	6.943214
2314.000000	6.905985
2313.000000	6.885688
2312.000000	6.850199
2311.000000	6.826655
2310.000000	6.804039
2309.000000	6.775740
2308.000000	6.757415
2307.000000	6.745237
2306.000000	6.740946
2305.000000	6.754748
2304.000000	6.752660
2303.000000	6.756255
2302.000000	6.778407
2301.000000	6.802067
2300.000000	6.816449
2299.000000	6.847415
2298.000000	6.889400
2297.000000	6.899026
2296.000000	6.933124
2295.000000	6.984735
2294.000000	6.992041
2293.000000	7.014773
2292.000000	7.031822
2291.000000	7.057338
2290.000000	7.062673
2289.000000	7.084941
2288.000000	7.100714
2287.000000	7.112196
2286.000000	7.102917
2285.000000	7.100134
2284.000000	7.093175
2283.000000	7.086912
2282.000000	7.066268
2281.000000	7.077750
2280.000000	7.048755
2279.000000	7.051539
2278.000000	7.022080
2277.000000	7.005611
2276.000000	7.001088
2275.000000	6.976500
2274.000000	6.973253
2273.000000	6.964090
2272.000000	6.960959
2271.000000	6.981255
2270.000000	6.987170
2269.000000	6.990649
2268.000000	7.014425
2267.000000	7.043652
2266.000000	7.064296
2265.000000	7.110456
2264.000000	7.161371
2263.000000	7.226435
2262.000000	7.286397
2261.000000	7.372453
2260.000000	7.442041
2259.000000	7.517891
2258.000000	7.626100
2257.000000	7.706357
2256.000000	7.806332
2255.000000	7.895520
2254.000000	8.011151
2253.000000	8.086305
2252.000000	8.202981
2251.000000	8.295880
2250.000000	8.392491
2249.000000	8.460571
2248.000000	8.534333
2247.000000	8.638831
2246.000000	8.696936
2245.000000	8.793431
2244.000000	8.838663
2243.000000	8.874964
2242.000000	8.940029
2241.000000	8.993959
2240.000000	9.069230
2239.000000	9.104255
2238.000000	9.144036
2237.000000	9.172103
2236.000000	9.214088
2235.000000	9.235776
2234.000000	9.290518
2233.000000	9.319049
2232.000000	9.322064
2231.000000	9.320673
2230.000000	9.347580
2229.000000	9.388057
2228.000000	9.368108
2227.000000	9.377271
2226.000000	9.358134
2225.000000	9.352103
2224.000000	9.337838
2223.000000	9.369616
2222.000000	9.361845
2221.000000	9.352103
2220.000000	9.352799
2219.000000	9.318237
2218.000000	9.319397
2217.000000	9.266046
2216.000000	9.252709
2215.000000	9.252593
2214.000000	9.256768
2213.000000	9.212348
2212.000000	9.202606
2211.000000	9.185789
2210.000000	9.180106
2209.000000	9.189732
2208.000000	9.181846
2207.000000	9.157258
2206.000000	9.149951
2205.000000	9.123508
2204.000000	9.137657
2203.000000	9.104139
2202.000000	9.115969
2201.000000	9.123740
2200.000000	9.134874
2199.000000	9.088018
2198.000000	9.093933
2197.000000	9.098108
2196.000000	9.101356
2195.000000	9.087786
2194.000000	9.070273
2193.000000	9.076072
2192.000000	9.081523
2191.000000	9.071549
2190.000000	9.065402
2189.000000	9.053688
2188.000000	9.051485
2187.000000	9.045338
2186.000000	9.023070
2185.000000	9.017851
2184.000000	9.023998
2183.000000	9.029565
2182.000000	9.001962
2181.000000	9.010544
2180.000000	8.991987
2179.000000	8.991987
2178.000000	9.001846
2177.000000	8.980622
2176.000000	8.980390
2175.000000	8.979926
2174.000000	8.988508
2173.000000	8.970647
2172.000000	8.968792
2171.000000	8.980158
2170.000000	8.985609
2169.000000	8.994075
2168.000000	9.010892
2167.000000	8.992335
2166.000000	9.001846
2165.000000	9.011588
2164.000000	9.013328
2163.000000	9.018895
2162.000000	9.022374
2161.000000	9.070737
2160.000000	9.086279
2159.000000	9.091034
2158.000000	9.108547
2157.000000	9.126755
2156.000000	9.168856
2155.000000	9.180802
2154.000000	9.205389
2153.000000	9.193327
2152.000000	9.226382
2151.000000	9.263727
2150.000000	9.281820
2149.000000	9.296317
2148.000000	9.328907
2147.000000	9.367644
2146.000000	9.403946
2145.000000	9.407309
2144.000000	9.406729
2143.000000	9.425634
2142.000000	9.454281
2141.000000	9.496265
2140.000000	9.513430
2139.000000	9.540337
2138.000000	9.553211
2137.000000	9.558430
2136.000000	9.566433
2135.000000	9.582090
2134.000000	9.608533
2133.000000	9.623495
2132.000000	9.635324
2131.000000	9.631729
2130.000000	9.659448
2129.000000	9.673482
2128.000000	9.678353
2127.000000	9.679165
2126.000000	9.672090
2125.000000	9.682180
2124.000000	9.695518
2123.000000	9.694590
2122.000000	9.719641
2121.000000	9.707579
2120.000000	9.687283
2119.000000	9.689603
2118.000000	9.696677
2117.000000	9.678353
2116.000000	9.686123
2115.000000	9.693662
2114.000000	9.684616
2113.000000	9.673714
2112.000000	9.675221
2111.000000	9.654461
2110.000000	9.641355
2109.000000	9.649242
2108.000000	9.634281
2107.000000	9.625930
2106.000000	9.627206
2105.000000	9.621987
2104.000000	9.590092
2103.000000	9.591136
2102.000000	9.587077
2101.000000	9.570260
2100.000000	9.551123
2099.000000	9.543469
2098.000000	9.529435
2097.000000	9.533495
2096.000000	9.544049
2095.000000	9.551355
2094.000000	9.534770
2093.000000	9.523056
2092.000000	9.529551
2091.000000	9.525956
2090.000000	9.525840
2089.000000	9.522013
2088.000000	9.502180
2087.000000	9.487219
2086.000000	9.491394
2085.000000	9.497773
2084.000000	9.484435
2083.000000	9.443843
2082.000000	9.423198
2081.000000	9.414384
2080.000000	9.427374
2079.000000	9.426562
2078.000000	9.390608
2077.000000	9.376575
2076.000000	9.360917
2075.000000	9.340041
2074.000000	9.315338
2073.000000	9.307451
2072.000000	9.289590
2071.000000	9.264075
2070.000000	9.241227
2069.000000	9.224062
2068.000000	9.213508
2067.000000	9.173379
2066.000000	9.148559
2065.000000	9.121652
2064.000000	9.094049
2063.000000	9.074681
2062.000000	9.055660
2061.000000	9.034088
2060.000000	9.018315
2059.000000	9.016111
2058.000000	8.998714
2057.000000	8.990016
2056.000000	8.998366
2055.000000	8.999758
2054.000000	9.018663
2053.000000	9.027477
2052.000000	9.025274
2051.000000	9.040699
2050.000000	9.077348
2049.000000	9.107619
2048.000000	9.125016
2047.000000	9.169436
2046.000000	9.205157
2045.000000	9.250621
2044.000000	9.298173
2043.000000	9.350943
2042.000000	9.384809
2041.000000	9.442335
2040.000000	9.484899
2039.000000	9.517605
2038.000000	9.559822
2037.000000	9.596935
2036.000000	9.631497
2035.000000	9.668958
2034.000000	9.706304
2033.000000	9.732051
2032.000000	9.748172
2031.000000	9.782386
2030.000000	9.793636
2029.000000	9.819383
2028.000000	9.849654
2027.000000	9.883056
2026.000000	9.889203
2025.000000	9.903120
2024.000000	9.916806
2023.000000	9.935479
2022.000000	9.951020
2021.000000	9.971664
2020.000000	9.991033
2019.000000	9.985466
2018.000000	9.992772
2017.000000	9.998339
2016.000000	10.005878
2015.000000	10.018172
2014.000000	9.998687
2013.000000	10.012721
2012.000000	10.027218
2011.000000	9.999383
2010.000000	10.000659
2009.000000	10.012721
2008.000000	9.986510
2007.000000	9.967025
2006.000000	9.951832
2005.000000	9.937334
2004.000000	9.919242
2003.000000	9.916458
2002.000000	9.899873
2001.000000	9.871458
2000.000000	9.862064
1999.000000	9.839332
1998.000000	9.809061
1997.000000	9.764989
1996.000000	9.742373
1995.000000	9.733907
1994.000000	9.708275
1993.000000	9.684500
1992.000000	9.657476
1991.000000	9.610621
1990.000000	9.576407
1989.000000	9.545904
1988.000000	9.510531
1987.000000	9.476317
1986.000000	9.447090
1985.000000	9.412528
1984.000000	9.375067
1983.000000	9.340621
1982.000000	9.313714
1981.000000	9.254449
1980.000000	9.230325
1979.000000	9.199126
1978.000000	9.166420
1977.000000	9.130583
1976.000000	9.086743
1975.000000	9.059487
1974.000000	9.026085
1973.000000	9.001614
1972.000000	8.966588
1971.000000	8.938753
1970.000000	8.886098
1969.000000	8.860699
1968.000000	8.854320
1967.000000	8.815931
1966.000000	8.767684
1965.000000	8.759101
1964.000000	8.721640
1963.000000	8.690789
1962.000000	8.681627
1961.000000	8.610648
1960.000000	8.610532
1959.000000	8.588844
1958.000000	8.528882
1957.000000	8.536305
1956.000000	8.509630
1955.000000	8.470197
1954.000000	8.468805
1953.000000	8.406060
1952.000000	8.394926
1951.000000	8.390751
1950.000000	8.353406
1949.000000	8.333341
1948.000000	8.299359
1947.000000	8.298664
1946.000000	8.257143
1945.000000	8.255635
1944.000000	8.236731
1943.000000	8.201589
1942.000000	8.221537
1941.000000	8.225481
1940.000000	8.167027
1939.000000	8.176885
1938.000000	8.152414
1937.000000	8.184076
1936.000000	8.192311
1935.000000	8.181756
1934.000000	8.196022
1933.000000	8.185352
1932.000000	8.208084
1931.000000	8.230468
1930.000000	8.263174
1929.000000	8.262594
1928.000000	8.266421
1927.000000	8.333341
1926.000000	8.338096
1925.000000	8.380081
1924.000000	8.436911
1923.000000	8.478895
1922.000000	8.523315
1921.000000	8.560777
1920.000000	8.616795
1919.000000	8.665158
1918.000000	8.714797
1917.000000	8.816163
1916.000000	8.864526
1915.000000	8.954990
1914.000000	8.996511
1913.000000	9.101240
1912.000000	9.188224
1911.000000	9.272657
1910.000000	9.363237
1909.000000	9.456948
1908.000000	9.533379
1907.000000	9.632425
1906.000000	9.765917
1905.000000	9.894422
1904.000000	10.020607
1903.000000	10.107940
1902.000000	10.280053
1901.000000	10.390233
1900.000000	10.554112
1899.000000	10.716251
1898.000000	10.856702
1897.000000	11.039717
1896.000000	11.200348
1895.000000	11.352745
1894.000000	11.553041
1893.000000	11.709845
1892.000000	11.942036
1891.000000	12.155670
1890.000000	12.381481
1889.000000	12.590940
1888.000000	12.840991
1887.000000	13.083504
1886.000000	13.344341
1885.000000	13.586622
1884.000000	13.914727
1883.000000	14.227755
1882.000000	14.565370
1881.000000	14.899623
1880.000000	15.201633
1879.000000	15.493436
1878.000000	15.792547
1877.000000	16.119029
1876.000000	16.415935
1875.000000	16.677933
1874.000000	16.983190
1873.000000	17.265020
1872.000000	17.503705
1871.000000	17.751784
1870.000000	17.987338
1869.000000	18.187635
1868.000000	18.405676
1867.000000	18.558188
1866.000000	18.695972
1865.000000	18.808703
1864.000000	18.926190
1863.000000	19.033355
1862.000000	19.146435
1861.000000	19.256731
1860.000000	19.346151
1859.000000	19.428381
1858.000000	19.496692
1857.000000	19.553290
1856.000000	19.595391
1855.000000	19.623806
1854.000000	19.684463
1853.000000	19.712414
1852.000000	19.699656
1851.000000	19.717053
1850.000000	19.719025
1849.000000	19.753122
1848.000000	19.764025
1847.000000	19.729579
1846.000000	19.704179
1845.000000	19.671705
1844.000000	19.650713
1843.000000	19.651873
1842.000000	19.667414
1841.000000	19.658020
1840.000000	19.639927
1839.000000	19.603741
1838.000000	19.573587
1837.000000	19.564540
1836.000000	19.548651
1835.000000	19.512929
1834.000000	19.456564
1833.000000	19.410056
1832.000000	19.372247
1831.000000	19.333857
1830.000000	19.295700
1829.000000	19.249541
1828.000000	19.198394
1827.000000	19.153278
1826.000000	19.117324
1825.000000	19.067569
1824.000000	19.045301
1823.000000	19.026396
1822.000000	19.005056
1821.000000	19.009927
1820.000000	18.964464
1819.000000	18.941500
1818.000000	18.919464
1817.000000	18.896732
1816.000000	18.890933
1815.000000	18.871564
1814.000000	18.869824
1813.000000	18.868201
1812.000000	18.838742
1811.000000	18.804528
1810.000000	18.792930
1809.000000	18.776925
1808.000000	18.737492
1807.000000	18.710121
1806.000000	18.690405
1805.000000	18.646216
1804.000000	18.611655
1803.000000	18.583936
1802.000000	18.538588
1801.000000	18.516204
1800.000000	18.490920
1799.000000	18.432931
1798.000000	18.379812
1797.000000	18.357776
1796.000000	18.351281
1795.000000	18.322866
1794.000000	18.272647
1793.000000	18.227879
1792.000000	18.201088
1791.000000	18.176964
1790.000000	18.130689
1789.000000	18.085573
1788.000000	18.057622
1787.000000	18.030715
1786.000000	18.002764
1785.000000	17.961243
1784.000000	17.922738
1783.000000	17.876578
1782.000000	17.808498
1781.000000	17.758859
1780.000000	17.719194
1779.000000	17.680109
1778.000000	17.624555
1777.000000	17.551024
1776.000000	17.488976
1775.000000	17.440728
1774.000000	17.373460
1773.000000	17.291927
1772.000000	17.231734
1771.000000	17.151360
1770.000000	17.065999
1769.000000	16.987713
1768.000000	16.914530
1767.000000	16.838100
1766.000000	16.787533
1765.000000	16.733371
1764.000000	16.677121
1763.000000	16.658216
1762.000000	16.645806
1761.000000	16.648358
1760.000000	16.668770
1759.000000	16.703912
1758.000000	16.741257
1757.000000	16.792288
1756.000000	16.825806
1755.000000	16.858744
1754.000000	16.886463
1753.000000	16.898757
1752.000000	16.906528
1751.000000	16.912907
1750.000000	16.900613
1749.000000	16.890175
1748.000000	16.869182
1747.000000	16.834853
1746.000000	16.782314
1745.000000	16.732211
1744.000000	16.665639
1743.000000	16.580626
1742.000000	16.485871
1741.000000	16.371051
1740.000000	16.251245
1739.000000	16.125059
1738.000000	16.022650
1737.000000	15.898436
1736.000000	15.805305
1735.000000	15.729338
1734.000000	15.677148
1733.000000	15.641310
1732.000000	15.620782
1731.000000	15.637599
1730.000000	15.651632
1729.000000	15.694545
1728.000000	15.757521
1727.000000	15.816091
1726.000000	15.872921
1725.000000	15.899016
1724.000000	15.935201
1723.000000	15.976258
1722.000000	16.007573
1721.000000	16.046773
1720.000000	16.077276
1719.000000	16.096413
1718.000000	16.143848
1717.000000	16.196155
1716.000000	16.242546
1715.000000	16.310858
1714.000000	16.373719
1713.000000	16.421386
1712.000000	16.484247
1711.000000	16.541077
1710.000000	16.574711
1709.000000	16.599183
1708.000000	16.607533
1707.000000	16.596979
1706.000000	16.595239
1705.000000	16.591992
1704.000000	16.562069
1703.000000	16.542005
1702.000000	16.509879
1701.000000	16.467546
1700.000000	16.381374
1699.000000	16.322340
1698.000000	16.256232
1697.000000	16.221786
1696.000000	16.175510
1695.000000	16.145820
1694.000000	16.168784
1693.000000	16.214827
1692.000000	16.304131
1691.000000	16.387868
1690.000000	16.509299
1689.000000	16.629685
1688.000000	16.701476
1687.000000	16.751463
1686.000000	16.806554
1685.000000	16.875097
1684.000000	16.946193
1683.000000	17.068783
1682.000000	17.222455
1681.000000	17.497442
1680.000000	17.811978
1679.000000	18.158524
1678.000000	18.491616
1677.000000	18.849296
1676.000000	19.176358
1675.000000	19.474308
1674.000000	19.749063
1673.000000	20.010364
1672.000000	20.211472
1671.000000	20.390197
1670.000000	20.538418
1669.000000	20.701485
1668.000000	20.854114
1667.000000	20.966729
1666.000000	21.037941
1665.000000	21.138263
1664.000000	21.204835
1663.000000	21.302257
1662.000000	21.366046
1661.000000	21.422760
1660.000000	21.497798
1659.000000	21.528765
1658.000000	21.594293
1657.000000	21.645324
1656.000000	21.620157
1655.000000	21.663533
1654.000000	21.678610
1653.000000	21.688352
1652.000000	21.681510
1651.000000	21.674087
1650.000000	21.655994
1649.000000	21.622476
1648.000000	21.595917
1647.000000	21.559151
1646.000000	21.547322
1645.000000	21.516239
1644.000000	21.488752
1643.000000	21.452798
1642.000000	21.385299
1641.000000	21.364074
1640.000000	21.333224
1639.000000	21.294255
1638.000000	21.236845
1637.000000	21.181175
1636.000000	21.150672
1635.000000	21.115067
1634.000000	21.035157
1633.000000	20.996652
1632.000000	20.936691
1631.000000	20.887168
1630.000000	20.819088
1629.000000	20.775480
1628.000000	20.706588
1627.000000	20.670402
1626.000000	20.616820
1625.000000	20.527632
1624.000000	20.461872
1623.000000	20.427426
1622.000000	20.351343
1621.000000	20.274101
1620.000000	20.242091
1619.000000	20.195235
1618.000000	20.152439
1617.000000	20.093638
1616.000000	20.022078
1615.000000	19.992968
1614.000000	19.940313
1613.000000	19.870841
1612.000000	19.832684
1611.000000	19.768780
1610.000000	19.707659
1609.000000	19.676460
1608.000000	19.618471
1607.000000	19.561177
1606.000000	19.507826
1605.000000	19.448445
1604.000000	19.407040
1603.000000	19.346731
1602.000000	19.296048
1601.000000	19.238291
1600.000000	19.181577
1599.000000	19.119064
1598.000000	19.066525
1597.000000	19.034283
1596.000000	18.975482
1595.000000	18.926190
1594.000000	18.867737
1593.000000	18.831319
1592.000000	18.775533
1591.000000	18.756397
1590.000000	18.704438
1589.000000	18.652131
1588.000000	18.613742
1587.000000	18.570946
1586.000000	18.522931
1585.000000	18.483962
1584.000000	18.460534
1583.000000	18.423188
1582.000000	18.393382
1581.000000	18.374245
1580.000000	18.348730
1579.000000	18.303150
1578.000000	18.309761
1577.000000	18.306977
1576.000000	18.259078
1575.000000	18.242841
1574.000000	18.225096
1573.000000	18.222660
1572.000000	18.225676
1571.000000	18.219761
1570.000000	18.222428
1569.000000	18.214890
1568.000000	18.213266
1567.000000	18.214890
1566.000000	18.219181
1565.000000	18.218717
1564.000000	18.235882
1563.000000	18.230779
1562.000000	18.222428
1561.000000	18.217673
1560.000000	18.223008
1559.000000	18.226372
1558.000000	18.203756
1557.000000	18.185663
1556.000000	18.187171
1555.000000	18.166526
1554.000000	18.138459
1553.000000	18.125470
1552.000000	18.114568
1551.000000	18.082441
1550.000000	18.055534
1549.000000	18.025727
1548.000000	17.992905
1547.000000	17.966462
1546.000000	17.951501
1545.000000	17.936192
1544.000000	17.903949
1543.000000	17.872519
1542.000000	17.861733
1541.000000	17.841205
1540.000000	17.832158
1539.000000	17.810470
1538.000000	17.776604
1537.000000	17.748421
1536.000000	17.743318
1535.000000	17.729053
1534.000000	17.702841
1533.000000	17.683009
1532.000000	17.661669
1531.000000	17.637313
1530.000000	17.617133
1529.000000	17.585006
1528.000000	17.546733
1527.000000	17.520986
1526.000000	17.479813
1525.000000	17.442584
1524.000000	17.414865
1523.000000	17.387842
1522.000000	17.369981
1521.000000	17.337623
1520.000000	17.293898
1519.000000	17.254349
1518.000000	17.224079
1517.000000	17.199375
1516.000000	17.148808
1515.000000	17.107984
1514.000000	17.084092
1513.000000	17.040600
1512.000000	16.984698
1511.000000	16.951412
1510.000000	16.923809
1509.000000	16.881592
1508.000000	16.847494
1507.000000	16.805510
1506.000000	16.762018
1505.000000	16.725716
1504.000000	16.677701
1503.000000	16.627946
1502.000000	16.597791
1501.000000	16.579234
1500.000000	16.552327
1499.000000	16.512662
1498.000000	16.466618
1497.000000	16.443539
1496.000000	16.422778
1495.000000	16.384389
1494.000000	16.365832
1493.000000	16.350291
1492.000000	16.326747
1491.000000	16.320716
1490.000000	16.304131
1489.000000	16.267598
1488.000000	16.257740
1487.000000	16.248345
1486.000000	16.229209
1485.000000	16.197083
1484.000000	16.183165
1483.000000	16.189428
1482.000000	16.162405
1481.000000	16.157766
1480.000000	16.174931
1479.000000	16.176090
1478.000000	16.147328
1477.000000	16.145008
1476.000000	16.150227
1475.000000	16.146632
1474.000000	16.153590
1473.000000	16.152199
1472.000000	16.170175
1471.000000	16.175510
1470.000000	16.174699
1469.000000	16.184209
1468.000000	16.210536
1467.000000	16.206477
1466.000000	16.221902
1465.000000	16.247302
1464.000000	16.249157
1463.000000	16.277688
1462.000000	16.302972
1461.000000	16.318397
1460.000000	16.358526
1459.000000	16.393783
1458.000000	16.429389
1457.000000	16.486799
1456.000000	16.535046
1455.000000	16.583525
1454.000000	16.616464
1453.000000	16.682920
1452.000000	16.738474
1451.000000	16.789273
1450.000000	16.849002
1449.000000	16.906760
1448.000000	16.966837
1447.000000	17.034337
1446.000000	17.089427
1445.000000	17.156347
1444.000000	17.239620
1443.000000	17.297378
1442.000000	17.368241
1441.000000	17.456269
1440.000000	17.515419
1439.000000	17.600084
1438.000000	17.681269
1437.000000	17.785534
1436.000000	17.874143
1435.000000	17.941874
1434.000000	18.049039
1433.000000	18.151217
1432.000000	18.255946
1431.000000	18.358936
1430.000000	18.457634
1429.000000	18.590546
1428.000000	18.709773
1427.000000	18.844541
1426.000000	18.972234
1425.000000	19.121731
1424.000000	19.286886
1423.000000	19.473612
1422.000000	19.634824
1421.000000	19.818303
1420.000000	19.991112
1419.000000	20.190480
1418.000000	20.388457
1417.000000	20.564281
1416.000000	20.768057
1415.000000	21.034113
1414.000000	21.291819
1413.000000	21.504409
1412.000000	21.730569
1411.000000	22.011702
1410.000000	22.301767
1409.000000	22.645993
1408.000000	22.972011
1407.000000	23.300812
1406.000000	23.643994
1405.000000	24.043659
1404.000000	24.398092
1403.000000	24.778504
1402.000000	25.118671
1401.000000	25.549186
1400.000000	25.976221
1399.000000	26.326943
1398.000000	26.602509
1397.000000	26.907999
1396.000000	27.297341
1395.000000	27.676129
1394.000000	27.978835
1393.000000	28.250342
1392.000000	28.586102
1391.000000	28.937636
1390.000000	29.280818
1389.000000	29.646385
1388.000000	30.102067
1387.000000	30.580366
1386.000000	31.064115
1385.000000	31.517362
1384.000000	32.075338
1383.000000	32.602000
1382.000000	33.124371
1381.000000	33.598378
1380.000000	33.893429
1379.000000	34.222114
1378.000000	34.484575
1377.000000	34.697049
1376.000000	34.911147
1375.000000	35.144497
1374.000000	35.383414
1373.000000	35.715927
1372.000000	36.064097
1371.000000	36.408323
1370.000000	36.768439
1369.000000	37.078799
1368.000000	37.369907
1367.000000	37.676324
1366.000000	37.911994
1365.000000	38.148824
1364.000000	38.345061
1363.000000	38.555911
1362.000000	38.725241
1361.000000	38.944325
1360.000000	39.092083
1359.000000	39.190549
1358.000000	39.301774
1357.000000	39.448951
1356.000000	39.689492
1355.000000	39.939543
1354.000000	40.342339
1353.000000	40.703615
1352.000000	41.169503
1351.000000	41.635044
1350.000000	42.098497
1349.000000	42.490391
1348.000000	42.865236
1347.000000	43.273715
1346.000000	43.593470
1345.000000	43.909977
1344.000000	44.257683
1343.000000	44.596458
1342.000000	44.886407
1341.000000	45.200130
1340.000000	45.518841
1339.000000	45.822591
1338.000000	46.124485
1337.000000	46.415825
1336.000000	46.679794
1335.000000	46.955708
1334.000000	47.237306
1333.000000	47.494896
1332.000000	47.751674
1331.000000	47.989315
1330.000000	48.245630
1329.000000	48.488954
1328.000000	48.705951
1327.000000	48.916570
1326.000000	49.117214
1325.000000	49.321685
1324.000000	49.521517
1323.000000	49.701633
1322.000000	49.891723
1321.000000	50.046092
1320.000000	50.205447
1319.000000	50.352625
1318.000000	50.514764
1317.000000	50.680846
1316.000000	50.803204
1315.000000	50.943771
1314.000000	51.056155
1313.000000	51.181528
1312.000000	51.310149
1311.000000	51.418474
1310.000000	51.510794
1309.000000	51.608216
1308.000000	51.674208
1307.000000	51.764672
1306.000000	51.856528
1305.000000	51.918345
1304.000000	51.971811
1303.000000	52.029453
1302.000000	52.060883
1301.000000	52.102520
1300.000000	52.145084
1299.000000	52.165496
1298.000000	52.196579
1297.000000	52.218151
1296.000000	52.227777
1295.000000	52.230561
1294.000000	52.239259
1293.000000	52.247958
1292.000000	52.258280
1291.000000	52.242159
1290.000000	52.223834
1289.000000	52.197159
1288.000000	52.167352
1287.000000	52.130355
1286.000000	52.081643
1285.000000	52.051837
1284.000000	52.003821
1283.000000	51.958126
1282.000000	51.883783
1281.000000	51.832868
1280.000000	51.795755
1279.000000	51.732662
1278.000000	51.684299
1277.000000	51.643822
1276.000000	51.608100
1275.000000	51.552198
1274.000000	51.515665
1273.000000	51.498152
1272.000000	51.471709
1271.000000	51.451528
1270.000000	51.418474
1269.000000	51.390755
1268.000000	51.347379
1267.000000	51.306438
1266.000000	51.277443
1265.000000	51.247521
1264.000000	51.200897
1263.000000	51.162276
1262.000000	51.116928
1261.000000	51.069608
1260.000000	51.018462
1259.000000	50.960704
1258.000000	50.905498
1257.000000	50.841709
1256.000000	50.786155
1255.000000	50.697083
1254.000000	50.608939
1253.000000	50.540627
1252.000000	50.435782
1251.000000	50.340099
1250.000000	50.259261
1249.000000	50.147689
1248.000000	50.035653
1247.000000	49.930344
1246.000000	49.801375
1245.000000	49.664520
1244.000000	49.530216
1243.000000	49.407974
1242.000000	49.263927
1241.000000	49.102136
1240.000000	48.955307
1239.000000	48.808129
1238.000000	48.657704
1237.000000	48.511570
1236.000000	48.350127
1235.000000	48.181145
1234.000000	48.008220
1233.000000	47.822537
1232.000000	47.635115
1231.000000	47.448156
1230.000000	47.252731
1229.000000	47.044201
1228.000000	46.837410
1227.000000	46.622848
1226.000000	46.402139
1225.000000	46.172153
1224.000000	45.936599
1223.000000	45.705220
1222.000000	45.472450
1221.000000	45.224022
1220.000000	44.983133
1219.000000	44.755930
1218.000000	44.536729
1217.000000	44.328198
1216.000000	44.118044
1215.000000	43.930506
1214.000000	43.744939
1213.000000	43.571318
1212.000000	43.413238
1211.000000	43.244372
1210.000000	43.106589
1209.000000	42.982839
1208.000000	42.850391
1207.000000	42.738819
1206.000000	42.638729
1205.000000	42.555224
1204.000000	42.491435
1203.000000	42.449450
1202.000000	42.403987
1201.000000	42.357247
1200.000000	42.290095
1199.000000	42.218884
1198.000000	42.130508
1197.000000	42.008149
1196.000000	41.863059
1195.000000	41.702428
1194.000000	41.475573
1193.000000	41.195947
1192.000000	40.884890
1191.000000	40.550870
1190.000000	40.229260
1189.000000	39.893732
1188.000000	39.630343
1187.000000	39.452663
1186.000000	39.368114
1185.000000	39.380755
1184.000000	39.521902
1183.000000	39.768126
1182.000000	40.086141
1181.000000	40.476875
1180.000000	40.901011
1179.000000	41.354606
1178.000000	41.730727
1177.000000	42.098149
1176.000000	42.431474
1175.000000	42.727221
1174.000000	43.002324
1173.000000	43.276962
1172.000000	43.536408
1171.000000	43.810003
1170.000000	44.084642
1169.000000	44.364732
1168.000000	44.646098
1167.000000	44.947180
1166.000000	45.245130
1165.000000	45.565929
1164.000000	45.901225
1163.000000	46.245335
1162.000000	46.608814
1161.000000	46.956404
1160.000000	47.318491
1159.000000	47.666197
1158.000000	48.009960
1157.000000	48.328555
1156.000000	48.621170
1155.000000	48.878412
1154.000000	49.114778
1153.000000	49.313103
1152.000000	49.489623
1151.000000	49.623231
1150.000000	49.733759
1149.000000	49.847071
1148.000000	49.970705
1147.000000	50.105937
1146.000000	50.270743
1145.000000	50.485653
1144.000000	50.731413
1143.000000	51.032147
1142.000000	51.352598
1141.000000	51.707494
1140.000000	52.049285
1139.000000	52.401050
1138.000000	52.773460
1137.000000	53.179271
1136.000000	53.577660
1135.000000	53.989850
1134.000000	54.414682
1133.000000	54.773522
1132.000000	55.079011
1131.000000	55.392735
1130.000000	55.666678
1129.000000	55.906175
1128.000000	56.094758
1127.000000	56.241007
1126.000000	56.366613
1125.000000	56.469371
1124.000000	56.540466
1123.000000	56.599615
1122.000000	56.661664
1121.000000	56.701677
1120.000000	56.718494
1119.000000	56.711999
1118.000000	56.718610
1117.000000	56.732759
1116.000000	56.706200
1115.000000	56.686600
1114.000000	56.656213
1113.000000	56.623971
1112.000000	56.590569
1111.000000	56.541394
1110.000000	56.518894
1109.000000	56.497669
1108.000000	56.455221
1107.000000	56.414860
1106.000000	56.397463
1105.000000	56.350956
1104.000000	56.298301
1103.000000	56.261304
1102.000000	56.231149
1101.000000	56.201690
1100.000000	56.160866
1099.000000	56.111459
1098.000000	56.053121
1097.000000	56.013572
1096.000000	55.971704
1095.000000	55.890054
1094.000000	55.852013
1093.000000	55.780570
1092.000000	55.710286
1091.000000	55.647078
1090.000000	55.583521
1089.000000	55.498856
1088.000000	55.428341
1087.000000	55.346343
1086.000000	55.268985
1085.000000	55.172838
1084.000000	55.096060
1083.000000	55.006872
1082.000000	54.936937
1081.000000	54.851112
1080.000000	54.755893
1079.000000	54.671692
1078.000000	54.591666
1077.000000	54.497607
1076.000000	54.429875
1075.000000	54.326190
1074.000000	54.243613
1073.000000	54.163355
1072.000000	54.066048
1071.000000	53.951229
1070.000000	53.874219
1069.000000	53.784219
1068.000000	53.685521
1067.000000	53.581371
1066.000000	53.488240
1065.000000	53.393717
1064.000000	53.279709
1063.000000	53.183446
1062.000000	53.080689
1061.000000	52.994052
1060.000000	52.879813
1059.000000	52.772532
1058.000000	52.649246
1057.000000	52.566321
1056.000000	52.449066
1055.000000	52.349672
1054.000000	52.240883
1053.000000	52.103795
1052.000000	52.030033
1051.000000	51.911270
1050.000000	51.796334
1049.000000	51.704827
1048.000000	51.616103
1047.000000	51.504531
1046.000000	51.419286
1045.000000	51.332649
1044.000000	51.224093
1043.000000	51.113449
1042.000000	51.032031
1041.000000	50.918256
1040.000000	50.827444
1039.000000	50.744983
1038.000000	50.646980
1037.000000	50.529377
1036.000000	50.437290
1035.000000	50.335112
1034.000000	50.220524
1033.000000	50.134700
1032.000000	50.015589
1031.000000	49.898102
1030.000000	49.798708
1029.000000	49.672638
1028.000000	49.552020
1027.000000	49.460048
1026.000000	49.312175
1025.000000	49.219739
1024.000000	49.078477
1023.000000	48.985345
1022.000000	48.852433
1021.000000	48.743645
1020.000000	48.624534
1019.000000	48.513774
1018.000000	48.381209
1017.000000	48.282627
1016.000000	48.177434
1015.000000	48.089174
1014.000000	47.981545
1013.000000	47.871597
1012.000000	47.806532
1011.000000	47.709342
1010.000000	47.639522
1009.000000	47.579793
1008.000000	47.489329
1007.000000	47.424265
1006.000000	47.353517
1005.000000	47.298891
1004.000000	47.229535
1003.000000	47.159368
1002.000000	47.082706
1001.000000	47.012654
1000.000000	46.933324
999.000000	46.849587
998.000000	46.785799
997.000000	46.734536
996.000000	46.647088
995.000000	46.566250
994.000000	46.495503
993.000000	46.441688
992.000000	46.358763
991.000000	46.293351
990.000000	46.224227
989.000000	46.159859
988.000000	46.096070
987.000000	46.036341
986.000000	45.985426
985.000000	45.920478
984.000000	45.866315
983.000000	45.787913
982.000000	45.726908
981.000000	45.681212
980.000000	45.633661
979.000000	45.572656
978.000000	45.520001
977.000000	45.452385
976.000000	45.384074
975.000000	45.323764
974.000000	45.273777
973.000000	45.232489
972.000000	45.176007
971.000000	45.095169
970.000000	45.048314
969.000000	45.011780
968.000000	44.939293
967.000000	44.869474
966.000000	44.827837
965.000000	44.772167
964.000000	44.732502
963.000000	44.681355
962.000000	44.619422
961.000000	44.574074
960.000000	44.548211
959.000000	44.516433
958.000000	44.469925
957.000000	44.420286
956.000000	44.361600
955.000000	44.311961
954.000000	44.282155
953.000000	44.251536
952.000000	44.194706
951.000000	44.142052
950.000000	44.085918
949.000000	44.015170
948.000000	43.985132
947.000000	43.927954
946.000000	43.847580
945.000000	43.799449
944.000000	43.741111
943.000000	43.672452
942.000000	43.603792
941.000000	43.549282
940.000000	43.483985
939.000000	43.393174
938.000000	43.316163
937.000000	43.253419
936.000000	43.213522
935.000000	43.141615
934.000000	43.061937
933.000000	43.010326
932.000000	42.940739
931.000000	42.890636
930.000000	42.828819
929.000000	42.736383
928.000000	42.660881
927.000000	42.615649
926.000000	42.547105
925.000000	42.470211
924.000000	42.398188
923.000000	42.338806
922.000000	42.303665
921.000000	42.246371
920.000000	42.164837
919.000000	42.091654
918.000000	42.020675
917.000000	41.997131
916.000000	41.941345
915.000000	41.860044
914.000000	41.782338
913.000000	41.708691
912.000000	41.643627
911.000000	41.620895
910.000000	41.577982
909.000000	41.513382
908.000000	41.465598
907.000000	41.421642
906.000000	41.379426
905.000000	41.354258
904.000000	41.341965
903.000000	41.316913
902.000000	41.303575
901.000000	41.309954
900.000000	41.311114
899.000000	41.290702
898.000000	41.274581
897.000000	41.289310
896.000000	41.299052
895.000000	41.289658
894.000000	41.258923
893.000000	41.253588
892.000000	41.245470
891.000000	41.220998
890.000000	41.226913
889.000000	41.204529
888.000000	41.176114
887.000000	41.151527
886.000000	41.102120
885.000000	41.076256
884.000000	40.996694
883.000000	40.977790
882.000000	40.906347
881.000000	40.849749
880.000000	40.763924
879.000000	40.664994
878.000000	40.565947
877.000000	40.453911
876.000000	40.314736
875.000000	40.144131
874.000000	39.998577
873.000000	39.900690
872.000000	39.915768
871.000000	40.008435
870.000000	40.087765
869.000000	40.177881
868.000000	40.262430
867.000000	40.360432
866.000000	40.437558
865.000000	40.521295
864.000000	40.634491
863.000000	40.714633
862.000000	40.787352
861.000000	40.887558
860.000000	40.982777
859.000000	41.068254
858.000000	41.181333
857.000000	40.665900
856.000000	41.269200
855.000000	41.608900
854.000000	41.937900
853.000000	42.413700
852.000000	41.891100
851.000000	42.399600
850.000000	42.717700
849.000000	42.677600
848.000000	42.660300
847.000000	42.938200
846.000000	43.473100
845.000000	43.358600
844.000000	43.936100
843.000000	43.904500
842.000000	43.986500
841.000000	44.044100
840.000000	44.314600
839.000000	44.318000
838.000000	44.643400
837.000000	44.751800
836.000000	44.664800
835.000000	45.011000
834.000000	45.096200
833.000000	44.816900
832.000000	45.164800
831.000000	45.000900
830.000000	45.227800
829.000000	45.217300
828.000000	45.508200
827.000000	45.548300
826.000000	45.683700
825.000000	45.682600
824.000000	45.746000
823.000000	45.896300
822.000000	45.933600
821.000000	45.933600
820.000000	46.188900
819.000000	46.071500
818.000000	46.200500
817.000000	46.248100
816.000000	46.462000
815.000000	46.108500
814.000000	46.256700
813.000000	46.281700
812.000000	46.446700
811.000000	46.372500
810.000000	46.480100
809.000000	46.402300
808.000000	46.518300
807.000000	46.504100
806.000000	46.519200
805.000000	46.399300
804.000000	46.654700
803.000000	46.438200
802.000000	46.558700
801.000000	46.649500
800.000000	46.512100
799.000000	46.622000
798.000000	46.441100
797.000000	46.528900
796.000000	46.540700
795.000000	46.439400
794.000000	46.437500
793.000000	46.510100
792.000000	46.445800
791.000000	46.499100
790.000000	46.465200
789.000000	46.502900
788.000000	46.348800
787.000000	46.198500
786.000000	46.338900
785.000000	46.277900
784.000000	46.253300
783.000000	46.204700
782.000000	46.171400
781.000000	46.245700
780.000000	46.201800
779.000000	45.995700
778.000000	46.062100
777.000000	45.934900
776.000000	45.988300
775.000000	45.824800
774.000000	45.827200
773.000000	45.792000
772.000000	45.670600
771.000000	45.630200
770.000000	45.594900
769.000000	45.558800
768.000000	45.444800
767.000000	45.367400
766.000000	45.278000
765.000000	45.275700
764.000000	45.193700
763.000000	45.095700
762.000000	45.026500
761.000000	44.953800
760.000000	44.810100
759.000000	44.807600
758.000000	44.726500
757.000000	44.618900
756.000000	44.505600
755.000000	44.410300
754.000000	44.415200
753.000000	44.255800
752.000000	44.175600
751.000000	44.120600
750.000000	43.902200
749.000000	43.819000
748.000000	43.750400
747.000000	43.713400
746.000000	43.561000
745.000000	43.469200
744.000000	43.341700
743.000000	43.249500
742.000000	43.169200
741.000000	43.137600
740.000000	42.995000
739.000000	42.894200
738.000000	42.832900
737.000000	42.659500
736.000000	42.493800
735.000000	42.380800
734.000000	42.304200
733.000000	42.170700
732.000000	42.014800
731.000000	41.874200
730.000000	41.724100
729.000000	41.619100
728.000000	41.440100
727.000000	41.295700
726.000000	41.120700
725.000000	41.037700
724.000000	40.841500
723.000000	40.659700
722.000000	40.503100
721.000000	40.284600
720.000000	40.103200
719.000000	39.972900
718.000000	39.775100
717.000000	39.581800
716.000000	39.409800
715.000000	39.213300
714.000000	39.022000
713.000000	38.858700
712.000000	38.603900
711.000000	38.399000
710.000000	38.226500
709.000000	37.975200
708.000000	37.787000
707.000000	37.591700
706.000000	37.355200
705.000000	37.121700
704.000000	36.895900
703.000000	36.627500
702.000000	36.403200
701.000000	36.115600
700.000000	35.810100
699.000000	35.543100
698.000000	35.283600
697.000000	35.004100
696.000000	34.687700
695.000000	34.434500
694.000000	34.162500
693.000000	33.910400
692.000000	33.586700
691.000000	33.280900
690.000000	32.952700
689.000000	32.655400
688.000000	32.347000
687.000000	32.039600
686.000000	31.777500
685.000000	31.458500
684.000000	31.139900
683.000000	30.840700
682.000000	30.537900
681.000000	30.217700
680.000000	29.920300
679.000000	29.624700
678.000000	29.312300
677.000000	28.991000
676.000000	28.717200
675.000000	28.429700
674.000000	28.153000
673.000000	27.846800
672.000000	27.560000
671.000000	27.288500
670.000000	27.020300
669.000000	26.742100
668.000000	26.499800
667.000000	26.278900
666.000000	26.044800
665.000000	25.819700
664.000000	25.598000
663.000000	25.377500
662.000000	25.164600
661.000000	24.966000
660.000000	24.754300
659.000000	24.552300
658.000000	24.365100
657.000000	24.191000
656.000000	24.026000
655.000000	23.871000
654.000000	23.693300
653.000000	23.521800
652.000000	23.397600
651.000000	23.285600
650.000000	23.170800
649.000000	23.077000
648.000000	22.978800
647.000000	22.889700
646.000000	22.800500
645.000000	22.703000
644.000000	22.625800
643.000000	22.585900
642.000000	22.530900
641.000000	22.489400
640.000000	22.485900
639.000000	22.490100
638.000000	22.503100
637.000000	22.511400
636.000000	22.523600
635.000000	22.565400
634.000000	22.611200
633.000000	22.675700
632.000000	22.755100
631.000000	22.810400
630.000000	22.906800
629.000000	23.032300
628.000000	23.137000
627.000000	23.261200
626.000000	23.394100
625.000000	23.527200
624.000000	23.675600
623.000000	23.820300
622.000000	23.978200
621.000000	24.145000
620.000000	24.293400
619.000000	24.443000
618.000000	24.586300
617.000000	24.754000
616.000000	24.923400
615.000000	25.101400
614.000000	25.282300
613.000000	25.442300
612.000000	25.599200
611.000000	25.762600
610.000000	25.941000
609.000000	26.094800
608.000000	26.220800
607.000000	26.363100
606.000000	26.531700
605.000000	26.679500
604.000000	26.807900
603.000000	26.941800
602.000000	27.088800
601.000000	27.228900
600.000000	27.361900
599.000000	27.465000
598.000000	27.570200
597.000000	27.692800
596.000000	27.812300
595.000000	27.920700
594.000000	27.990500
593.000000	28.087500
592.000000	28.186900
591.000000	28.264700
590.000000	28.349400
589.000000	28.414000
588.000000	28.466000
587.000000	28.510100
586.000000	28.578800
585.000000	28.616000
584.000000	28.649800
583.000000	28.668500
582.000000	28.677000
581.000000	28.717800
580.000000	28.737400
579.000000	28.719100
578.000000	28.727100
577.000000	28.722800
576.000000	28.713100
575.000000	28.703500
574.000000	28.674000
573.000000	28.623100
572.000000	28.586300
571.000000	28.555700
570.000000	28.510600
569.000000	28.438800
568.000000	28.377900
567.000000	28.345500
566.000000	28.261500
565.000000	28.164900
564.000000	28.062200
563.000000	27.983800
562.000000	27.897400
561.000000	27.791200
560.000000	27.669100
559.000000	27.557100
558.000000	27.431800
557.000000	27.306800
556.000000	27.196600
555.000000	27.029300
554.000000	26.858100
553.000000	26.686400
552.000000	26.514200
551.000000	26.313700
550.000000	26.134700
549.000000	25.922300
548.000000	25.709900
547.000000	25.525400
546.000000	25.292500
545.000000	25.057400
544.000000	24.811000
543.000000	24.584500
542.000000	24.309900
541.000000	24.060000
540.000000	23.798200
539.000000	23.538700
538.000000	23.248300
537.000000	22.971000
536.000000	22.711000
535.000000	22.421100
534.000000	22.118400
533.000000	21.816000
532.000000	21.531100
531.000000	21.238600
530.000000	20.942800
529.000000	20.646700
528.000000	20.363600
527.000000	20.056700
526.000000	19.773300
525.000000	19.472400
524.000000	19.176500
523.000000	18.883200
522.000000	18.595800
521.000000	18.287200
520.000000	17.992800
519.000000	17.725600
518.000000	17.440000
517.000000	17.154200
516.000000	16.898000
515.000000	16.624800
514.000000	16.380600
513.000000	16.113200
512.000000	15.864600
511.000000	15.597500
510.000000	15.360200
509.000000	15.121100
508.000000	14.893600
507.000000	14.664600
506.000000	14.444600
505.000000	14.228800
504.000000	14.026800
503.000000	13.837500
502.000000	13.647600
501.000000	13.439200
500.000000	13.245000
499.000000	13.080800
498.000000	12.929600
497.000000	12.780300
496.000000	12.600900
495.000000	12.476100
494.000000	12.305200
493.000000	12.199100
492.000000	12.063900
491.000000	11.918300
490.000000	11.800400
489.000000	11.680400
488.000000	11.602400
487.000000	11.492600
486.000000	11.367100
485.000000	11.294700
484.000000	11.199100
483.000000	11.100700
482.000000	11.000200
481.000000	10.881600
480.000000	10.772600
479.000000	10.650800
478.000000	10.569100
477.000000	10.489200
476.000000	10.386900
475.000000	10.325300
474.000000	10.215700
473.000000	10.137000
472.000000	10.059300
471.000000	9.944600
470.000000	9.893600
469.000000	9.806000
468.000000	9.745000
467.000000	9.658600
466.000000	9.598600
465.000000	9.529300
464.000000	9.457200
463.000000	9.376200
462.000000	9.314200
461.000000	9.254600
460.000000	9.172200
459.000000	9.115000
458.000000	9.035400
457.000000	8.973900
456.000000	8.909800
455.000000	8.857700
454.000000	8.787500
453.000000	8.707000
452.000000	8.657800
451.000000	8.577000
450.000000	8.525100
449.000000	8.443000
448.000000	8.364300
447.000000	8.266400
446.000000	8.237400
445.000000	8.163500
444.000000	8.060800
443.000000	7.978600
442.000000	7.904400
441.000000	7.831000
440.000000	7.749100
439.000000	7.675000
438.000000	7.596800
437.000000	7.527100
436.000000	7.445800
435.000000	7.352900
434.000000	7.278700
433.000000	7.194700
432.000000	7.124300
431.000000	7.058500
430.000000	6.992600
429.000000	6.905200
428.000000	6.849100
427.000000	6.773000
426.000000	6.701200
425.000000	6.629700
424.000000	6.572400
423.000000	6.522600
422.000000	6.455600
421.000000	6.377900
420.000000	6.312700
419.000000	6.272700
418.000000	6.200600
417.000000	6.142200
416.000000	6.078100
415.000000	6.030800
414.000000	5.974200
413.000000	5.919900
412.000000	5.852100
411.000000	5.801700
410.000000	5.770800
409.000000	5.700500
408.000000	5.651100
407.000000	5.604800
406.000000	5.567400
405.000000	5.512400
404.000000	5.455900
403.000000	5.413700
402.000000	5.378200
401.000000	5.327300
400.000000	5.278300
399.000000	5.249300
398.000000	5.203700
397.000000	5.165600
396.000000	5.145900
395.000000	5.109200
394.000000	5.064800
393.000000	5.026100
392.000000	5.005900
391.000000	4.979700
390.000000	4.964500
389.000000	4.929500
388.000000	4.892300
387.000000	4.882200
386.000000	4.844400
385.000000	4.828800
384.000000	4.845000
383.000000	4.796400
382.000000	4.756100
381.000000	4.752000
380.000000	4.743000
379.000000	4.746000
378.000000	4.722100
377.000000	4.707200
376.000000	4.751800
375.000000	4.638200
374.000000	4.217000
373.000000	4.023100
372.000000	4.024700
371.000000	4.031300
370.000000	4.245200
369.000000	4.451400
368.000000	4.527600
367.000000	4.618100
366.000000	4.712800
365.000000	4.633500
364.000000	4.486100
363.000000	4.764400
362.000000	4.735000
361.000000	4.597600
360.000000	4.648500
359.000000	4.594700
358.000000	4.583600
357.000000	4.623100
356.000000	4.676800
355.000000	4.789100
354.000000	4.654400
353.000000	4.527300
352.000000	4.582100
351.000000	4.749200
350.000000	4.740000
349.000000	4.741600
348.000000	4.735800
347.000000	4.773000
346.000000	4.849600
345.000000	4.760100
344.000000	4.694500
343.000000	4.946100
342.000000	4.988800
341.000000	4.741800
340.000000	4.886500
339.000000	5.123100
338.000000	5.250200
337.000000	5.217600
336.000000	5.061900
335.000000	5.178000
334.000000	5.192800
333.000000	5.213700
332.000000	5.337100
331.000000	5.373900
330.000000	5.510700
329.000000	5.256600
328.000000	5.297100
327.000000	5.783500
326.000000	5.118500
325.000000	4.948200
324.000000	5.612600
323.000000	5.400400
322.000000	5.400900
321.000000	6.104900
320.000000	6.175900
319.000000	5.921700
318.000000	6.798700
317.000000	6.985800
316.000000	5.513700
315.000000	4.669200
314.000000	4.680700
313.000000	4.690600
312.000000	4.632600
311.000000	4.661400
310.000000	4.702500
309.000000	4.710500
308.000000	4.673300
307.000000	4.696000
306.000000	4.683600
305.000000	4.672800
304.000000	4.713700
303.000000	4.713300
302.000000	4.676300
301.000000	4.660500
300.000000	4.709100
299.000000	4.710900
298.000000	4.736500
297.000000	4.732700
296.000000	4.717000
295.000000	4.721200
294.000000	4.701400
293.000000	4.698200
292.000000	4.701300
291.000000	4.711200
290.000000	4.752400
289.000000	4.749500
288.000000	4.739100
287.000000	4.747300
286.000000	4.758200
285.000000	4.732600
284.000000	4.728600
283.000000	4.743600
282.000000	4.769500
281.000000	4.722400
280.000000	4.776400
279.000000	4.807800
278.000000	4.815100
277.000000	4.804900
276.000000	4.798900
275.000000	4.823500
274.000000	4.828400
273.000000	4.837600
272.000000	4.902900
271.000000	4.888200
270.000000	4.880100
269.000000	4.899800
268.000000	4.986700
267.000000	4.922800
266.000000	4.929700
265.000000	4.973300
264.000000	4.982000
263.000000	5.030500
262.000000	5.101400
261.000000	5.107000
260.000000	5.110300
259.000000	5.090900
258.000000	5.105700
257.000000	5.079600
256.000000	5.172300
255.000000	5.132300
254.000000	5.150800
253.000000	5.244100
252.000000	5.263000
251.000000	5.230600
250.000000	5.236900
