PE UV       SUBTECH     SPECTRUM    ASCII       PEDS        4.00        
   -1
CICIMAUCR0210-1.Sample.ASC
24/06/07
13:54:55.00
24/06/07
13:54:55.00
Vinicio Soto Monge
C. resplendens. Sex F. Ventral
250,000000
1
Lambda 1050
1050L1511233
PerkinElmer UV WinLab 6.3.2.0749 / 2.02.05 Lambda 900 UV/VIS/NIR, Aug  7 2015 09:38:08

0
0
3350/servo 860,8/2
0
0
UV/VIS
1
1
1
DoubleDePol,CommonBeamDepol,RBeamAtt,SBeamAtt,60mm sphere, WB InGaAs Detector
0
0
0
0
Program
Program
3350/servo 860,8/2
3350/0,2 860,8/0,2
3350/0,2 860,8/0,2
0
15.00
 
 
 
0
 
860,8
319,2
860,8
Front
100
on
S:100 R:100
0
0
0
0
 
0
 
 
 
0
 
 
0
0
0
0
0
 
 
 
 
0
0


0
0
#HDR
-1
-1
#GR
nm
%R
1.0
0.0
2500,000000
-1,000000
2251
8
55,576300
3,871600
#DATA
2482.000000	4.841843
2481.000000	4.803818
2480.000000	4.757102
2479.000000	4.756233
2478.000000	4.793497
2477.000000	4.740372
2476.000000	4.728095
2475.000000	4.737655
2474.000000	4.742110
2473.000000	4.742870
2472.000000	4.745369
2471.000000	4.783285
2470.000000	4.759710
2469.000000	4.790021
2468.000000	4.733418
2467.000000	4.735048
2466.000000	4.744717
2465.000000	4.764381
2464.000000	4.771769
2463.000000	4.763186
2462.000000	4.787739
2461.000000	4.776223
2460.000000	4.800994
2459.000000	4.809794
2458.000000	4.792085
2457.000000	4.798278
2456.000000	4.792628
2455.000000	4.842929
2454.000000	4.867483
2453.000000	4.886821
2452.000000	4.867157
2451.000000	4.909527
2450.000000	4.942011
2449.000000	4.941250
2448.000000	4.959176
2447.000000	4.985685
2446.000000	4.998831
2445.000000	5.009477
2444.000000	5.011868
2443.000000	5.040658
2442.000000	5.064342
2441.000000	5.087048
2440.000000	5.121053
2439.000000	5.131374
2438.000000	5.147779
2437.000000	5.145388
2436.000000	5.160055
2435.000000	5.205142
2434.000000	5.226001
2433.000000	5.247838
2432.000000	5.283364
2431.000000	5.295857
2430.000000	5.288470
2429.000000	5.301616
2428.000000	5.309981
2427.000000	5.298465
2426.000000	5.323127
2425.000000	5.369625
2424.000000	5.379729
2423.000000	5.386356
2422.000000	5.385161
2421.000000	5.407867
2420.000000	5.418623
2419.000000	5.423186
2418.000000	5.441655
2417.000000	5.461862
2416.000000	5.472726
2415.000000	5.474682
2414.000000	5.494889
2413.000000	5.496519
2412.000000	5.499126
2411.000000	5.494238
2410.000000	5.502386
2409.000000	5.520963
2408.000000	5.535630
2407.000000	5.555729
2406.000000	5.550949
2405.000000	5.553991
2404.000000	5.567136
2403.000000	5.571373
2402.000000	5.585823
2401.000000	5.601250
2400.000000	5.613635
2399.000000	5.644707
2398.000000	5.664588
2397.000000	5.666544
2396.000000	5.670672
2395.000000	5.694682
2394.000000	5.703047
2393.000000	5.708914
2392.000000	5.735749
2391.000000	5.738356
2390.000000	5.745635
2389.000000	5.749437
2388.000000	5.752262
2387.000000	5.766168
2386.000000	5.773339
2385.000000	5.781595
2384.000000	5.774751
2383.000000	5.777576
2382.000000	5.774642
2381.000000	5.790178
2380.000000	5.804736
2379.000000	5.789309
2378.000000	5.781921
2377.000000	5.787679
2376.000000	5.794198
2375.000000	5.793220
2374.000000	5.783008
2373.000000	5.774642
2372.000000	5.776815
2371.000000	5.768776
2370.000000	5.744657
2369.000000	5.724993
2368.000000	5.732272
2367.000000	5.733358
2366.000000	5.720104
2365.000000	5.711630
2364.000000	5.698919
2363.000000	5.677734
2362.000000	5.655136
2361.000000	5.660242
2360.000000	5.658721
2359.000000	5.627324
2358.000000	5.610158
2357.000000	5.605596
2356.000000	5.581151
2355.000000	5.568331
2354.000000	5.578218
2353.000000	5.575176
2352.000000	5.563660
2351.000000	5.566050
2350.000000	5.586583
2349.000000	5.597556
2348.000000	5.587670
2347.000000	5.595383
2346.000000	5.608529
2345.000000	5.629823
2344.000000	5.647097
2343.000000	5.669368
2342.000000	5.678712
2341.000000	5.680884
2340.000000	5.693378
2339.000000	5.696312
2338.000000	5.705220
2337.000000	5.718692
2336.000000	5.746395
2335.000000	5.748786
2334.000000	5.736726
2333.000000	5.734879
2332.000000	5.716084
2331.000000	5.721951
2330.000000	5.721299
2329.000000	5.702287
2328.000000	5.677082
2327.000000	5.661546
2326.000000	5.644598
2325.000000	5.637645
2324.000000	5.614613
2323.000000	5.599729
2322.000000	5.572242
2321.000000	5.535196
2320.000000	5.522593
2319.000000	5.499561
2318.000000	5.475877
2317.000000	5.473596
2316.000000	5.435788
2315.000000	5.389290
2314.000000	5.377230
2313.000000	5.355719
2312.000000	5.342574
2311.000000	5.324648
2310.000000	5.295966
2309.000000	5.270218
2308.000000	5.248816
2307.000000	5.257072
2306.000000	5.236865
2305.000000	5.234475
2304.000000	5.235018
2303.000000	5.242840
2302.000000	5.257941
2301.000000	5.283364
2300.000000	5.316934
2299.000000	5.320845
2298.000000	5.358761
2297.000000	5.383206
2296.000000	5.411778
2295.000000	5.424598
2294.000000	5.455127
2293.000000	5.460124
2292.000000	5.466534
2291.000000	5.481418
2290.000000	5.521615
2289.000000	5.539433
2288.000000	5.530633
2287.000000	5.543452
2286.000000	5.531067
2285.000000	5.541605
2284.000000	5.529220
2283.000000	5.527808
2282.000000	5.518791
2281.000000	5.503038
2280.000000	5.480549
2279.000000	5.473596
2278.000000	5.465013
2277.000000	5.450238
2276.000000	5.441546
2275.000000	5.451324
2274.000000	5.448065
2273.000000	5.438504
2272.000000	5.440351
2271.000000	5.434485
2270.000000	5.453714
2269.000000	5.472292
2268.000000	5.462949
2267.000000	5.493151
2266.000000	5.524875
2265.000000	5.560944
2264.000000	5.584519
2263.000000	5.632973
2262.000000	5.691749
2261.000000	5.745852
2260.000000	5.809408
2259.000000	5.895887
2258.000000	5.961615
2257.000000	6.037773
2256.000000	6.130444
2255.000000	6.199323
2254.000000	6.303620
2253.000000	6.384232
2252.000000	6.482010
2251.000000	6.558059
2250.000000	6.648884
2249.000000	6.711461
2248.000000	6.795767
2247.000000	6.876380
2246.000000	6.931787
2245.000000	7.013377
2244.000000	7.084755
2243.000000	7.148854
2242.000000	7.220014
2241.000000	7.276508
2240.000000	7.306602
2239.000000	7.345061
2238.000000	7.405792
2237.000000	7.429367
2236.000000	7.482710
2235.000000	7.543441
2234.000000	7.575164
2233.000000	7.591135
2232.000000	7.623184
2231.000000	7.661535
2230.000000	7.676419
2229.000000	7.683480
2228.000000	7.694453
2227.000000	7.721070
2226.000000	7.737367
2225.000000	7.724112
2224.000000	7.726285
2223.000000	7.728567
2222.000000	7.728349
2221.000000	7.717811
2220.000000	7.708468
2219.000000	7.695322
2218.000000	7.700537
2217.000000	7.708359
2216.000000	7.689238
2215.000000	7.673268
2214.000000	7.658058
2213.000000	7.678917
2212.000000	7.652083
2211.000000	7.650996
2210.000000	7.616014
2209.000000	7.593416
2208.000000	7.606019
2207.000000	7.607322
2206.000000	7.586246
2205.000000	7.589722
2204.000000	7.593090
2203.000000	7.553762
2202.000000	7.573535
2201.000000	7.549199
2200.000000	7.560063
2199.000000	7.553979
2198.000000	7.544745
2197.000000	7.548547
2196.000000	7.531708
2195.000000	7.542246
2194.000000	7.520735
2193.000000	7.544745
2192.000000	7.525841
2191.000000	7.523559
2190.000000	7.514108
2189.000000	7.506394
2188.000000	7.499332
2187.000000	7.518345
2186.000000	7.511826
2185.000000	7.486187
2184.000000	7.508024
2183.000000	7.485752
2182.000000	7.468587
2181.000000	7.475866
2180.000000	7.480429
2179.000000	7.460004
2178.000000	7.438167
2177.000000	7.433930
2176.000000	7.441209
2175.000000	7.417308
2174.000000	7.437080
2173.000000	7.434147
2172.000000	7.445772
2171.000000	7.437515
2170.000000	7.438493
2169.000000	7.431322
2168.000000	7.441209
2167.000000	7.434039
2166.000000	7.450009
2165.000000	7.453920
2164.000000	7.474345
2163.000000	7.464567
2162.000000	7.482601
2161.000000	7.504656
2160.000000	7.503026
2159.000000	7.519431
2158.000000	7.528774
2157.000000	7.552350
2156.000000	7.552350
2155.000000	7.584290
2154.000000	7.585703
2153.000000	7.610799
2152.000000	7.644912
2151.000000	7.647520
2150.000000	7.661752
2149.000000	7.681090
2148.000000	7.712270
2147.000000	7.744211
2146.000000	7.757683
2145.000000	7.767460
2144.000000	7.785930
2143.000000	7.795381
2142.000000	7.805376
2141.000000	7.827865
2140.000000	7.838512
2139.000000	7.860567
2138.000000	7.865564
2137.000000	7.868063
2136.000000	7.894354
2135.000000	7.906848
2134.000000	7.905979
2133.000000	7.918255
2132.000000	7.929120
2131.000000	7.926729
2130.000000	7.947154
2129.000000	7.967905
2128.000000	7.966058
2127.000000	7.962147
2126.000000	7.966710
2125.000000	7.959648
2124.000000	7.959865
2123.000000	7.959213
2122.000000	7.949762
2121.000000	7.953890
2120.000000	7.955194
2119.000000	7.944329
2118.000000	7.924231
2117.000000	7.919994
2116.000000	7.935964
2115.000000	7.933900
2114.000000	7.902937
2113.000000	7.889574
2112.000000	7.889139
2111.000000	7.884794
2110.000000	7.873604
2109.000000	7.855678
2108.000000	7.845031
2107.000000	7.833949
2106.000000	7.828300
2105.000000	7.827322
2104.000000	7.805268
2103.000000	7.776152
2102.000000	7.766483
2101.000000	7.765396
2100.000000	7.752033
2099.000000	7.748991
2098.000000	7.741060
2097.000000	7.717594
2096.000000	7.704448
2095.000000	7.703470
2094.000000	7.701841
2093.000000	7.678917
2092.000000	7.657949
2091.000000	7.675658
2090.000000	7.675984
2089.000000	7.659362
2088.000000	7.648280
2087.000000	7.630789
2086.000000	7.615470
2085.000000	7.607974
2084.000000	7.601564
2083.000000	7.594829
2082.000000	7.584290
2081.000000	7.570601
2080.000000	7.560172
2079.000000	7.548982
2078.000000	7.537248
2077.000000	7.509001
2076.000000	7.490750
2075.000000	7.484883
2074.000000	7.463155
2073.000000	7.436863
2072.000000	7.416221
2071.000000	7.391668
2070.000000	7.374611
2069.000000	7.357229
2068.000000	7.346908
2067.000000	7.327569
2066.000000	7.282266
2065.000000	7.268251
2064.000000	7.269555
2063.000000	7.247392
2062.000000	7.240004
2061.000000	7.229031
2060.000000	7.211974
2059.000000	7.208715
2058.000000	7.201328
2057.000000	7.203718
2056.000000	7.203392
2055.000000	7.205021
2054.000000	7.219036
2053.000000	7.229357
2052.000000	7.239026
2051.000000	7.252715
2050.000000	7.285525
2049.000000	7.319856
2048.000000	7.354621
2047.000000	7.387866
2046.000000	7.412201
2045.000000	7.447510
2044.000000	7.500310
2043.000000	7.556478
2042.000000	7.572340
2041.000000	7.629703
2040.000000	7.682828
2039.000000	7.712053
2038.000000	7.751056
2037.000000	7.796251
2036.000000	7.837534
2035.000000	7.854483
2034.000000	7.886749
2033.000000	7.929446
2032.000000	7.976379
2031.000000	7.988873
2030.000000	8.011362
2029.000000	8.030917
2028.000000	8.063618
2027.000000	8.084477
2026.000000	8.109900
2025.000000	8.133258
2024.000000	8.145534
2023.000000	8.163786
2022.000000	8.171391
2021.000000	8.160744
2020.000000	8.187144
2019.000000	8.200290
2018.000000	8.208438
2017.000000	8.218107
2016.000000	8.226147
2015.000000	8.213761
2014.000000	8.229623
2013.000000	8.227124
2012.000000	8.222127
2011.000000	8.211480
2010.000000	8.219193
2009.000000	8.214522
2008.000000	8.211914
2007.000000	8.187687
2006.000000	8.167371
2005.000000	8.145752
2004.000000	8.155095
2003.000000	8.131628
2002.000000	8.115875
2001.000000	8.077742
2000.000000	8.072418
1999.000000	8.042868
1998.000000	8.011253
1997.000000	8.013860
1996.000000	7.983549
1995.000000	7.970947
1994.000000	7.921080
1993.000000	7.902068
1992.000000	7.865999
1991.000000	7.838078
1990.000000	7.796468
1989.000000	7.767895
1988.000000	7.743885
1987.000000	7.717159
1986.000000	7.674246
1985.000000	7.621772
1984.000000	7.630898
1983.000000	7.593416
1982.000000	7.563214
1981.000000	7.530947
1980.000000	7.484448
1979.000000	7.451313
1978.000000	7.415352
1977.000000	7.374177
1976.000000	7.356251
1975.000000	7.317357
1974.000000	7.259125
1973.000000	7.241308
1972.000000	7.238157
1971.000000	7.189486
1970.000000	7.163737
1969.000000	7.137663
1968.000000	7.112567
1967.000000	7.090947
1966.000000	7.086928
1965.000000	7.045752
1964.000000	6.992735
1963.000000	6.966987
1962.000000	6.966770
1961.000000	6.948518
1960.000000	6.927985
1959.000000	6.892133
1958.000000	6.861930
1957.000000	6.829990
1956.000000	6.817170
1955.000000	6.815323
1954.000000	6.782187
1953.000000	6.741121
1952.000000	6.711787
1951.000000	6.738513
1950.000000	6.698316
1949.000000	6.663442
1948.000000	6.639214
1947.000000	6.641605
1946.000000	6.607382
1945.000000	6.624656
1944.000000	6.601950
1943.000000	6.587827
1942.000000	6.549694
1941.000000	6.560123
1940.000000	6.564469
1939.000000	6.573052
1938.000000	6.549911
1937.000000	6.544261
1936.000000	6.563926
1935.000000	6.571422
1934.000000	6.577506
1933.000000	6.568271
1932.000000	6.598256
1931.000000	6.604232
1930.000000	6.632370
1929.000000	6.640953
1928.000000	6.673871
1927.000000	6.694296
1926.000000	6.735363
1925.000000	6.748291
1924.000000	6.787293
1923.000000	6.815323
1922.000000	6.862474
1921.000000	6.910276
1920.000000	6.990671
1919.000000	7.015876
1918.000000	7.078780
1917.000000	7.117130
1916.000000	7.172320
1915.000000	7.207629
1914.000000	7.280853
1913.000000	7.386888
1912.000000	7.450335
1911.000000	7.544527
1910.000000	7.613080
1909.000000	7.663382
1908.000000	7.743451
1907.000000	7.828734
1906.000000	7.920754
1905.000000	8.061771
1904.000000	8.175954
1903.000000	8.288181
1902.000000	8.414966
1901.000000	8.529366
1900.000000	8.654847
1899.000000	8.820200
1898.000000	8.974255
1897.000000	9.113533
1896.000000	9.255637
1895.000000	9.389049
1894.000000	9.494541
1893.000000	9.677168
1892.000000	9.862293
1891.000000	10.073819
1890.000000	10.301207
1889.000000	10.503172
1888.000000	10.738707
1887.000000	10.949255
1886.000000	11.175774
1885.000000	11.466174
1884.000000	11.780800
1883.000000	12.153985
1882.000000	12.525215
1881.000000	12.905353
1880.000000	13.255180
1879.000000	13.619673
1878.000000	13.991011
1877.000000	14.361914
1876.000000	14.729233
1875.000000	15.097963
1874.000000	15.464956
1873.000000	15.828254
1872.000000	16.218170
1871.000000	16.559740
1870.000000	16.877735
1869.000000	17.218544
1868.000000	17.503729
1867.000000	17.722208
1866.000000	17.913309
1865.000000	18.067798
1864.000000	18.215985
1863.000000	18.330494
1862.000000	18.435442
1861.000000	18.582760
1860.000000	18.726276
1859.000000	18.849911
1858.000000	18.959748
1857.000000	19.051442
1856.000000	19.114780
1855.000000	19.134661
1854.000000	19.178879
1853.000000	19.208864
1852.000000	19.231027
1851.000000	19.234720
1850.000000	19.220706
1849.000000	19.181812
1848.000000	19.202128
1847.000000	19.235046
1846.000000	19.222878
1845.000000	19.188765
1844.000000	19.132271
1843.000000	19.086316
1842.000000	19.065782
1841.000000	19.070237
1840.000000	19.083817
1839.000000	19.066434
1838.000000	19.049051
1837.000000	19.008093
1836.000000	18.966918
1835.000000	18.949210
1834.000000	18.913249
1833.000000	18.856212
1832.000000	18.777338
1831.000000	18.703570
1830.000000	18.652943
1829.000000	18.606770
1828.000000	18.548864
1827.000000	18.477269
1826.000000	18.412736
1825.000000	18.366020
1824.000000	18.317348
1823.000000	18.247818
1822.000000	18.191215
1821.000000	18.179156
1820.000000	18.176005
1819.000000	18.175679
1818.000000	18.155906
1817.000000	18.119729
1816.000000	18.088657
1815.000000	18.067363
1814.000000	18.063995
1813.000000	18.048242
1812.000000	18.034988
1811.000000	18.007719
1810.000000	17.984035
1809.000000	17.948183
1808.000000	17.906899
1807.000000	17.869201
1806.000000	17.826070
1805.000000	17.782722
1804.000000	17.732638
1803.000000	17.685378
1802.000000	17.635512
1801.000000	17.589448
1800.000000	17.552618
1799.000000	17.516006
1798.000000	17.452016
1797.000000	17.398238
1796.000000	17.367818
1795.000000	17.325231
1794.000000	17.281991
1793.000000	17.243532
1792.000000	17.183562
1791.000000	17.126307
1790.000000	17.092628
1789.000000	17.040806
1788.000000	16.970841
1787.000000	16.927275
1786.000000	16.871977
1785.000000	16.805379
1784.000000	16.748885
1783.000000	16.685221
1782.000000	16.616234
1781.000000	16.540836
1780.000000	16.458920
1779.000000	16.409814
1778.000000	16.347236
1777.000000	16.271622
1776.000000	16.179167
1775.000000	16.089320
1774.000000	16.012945
1773.000000	15.927987
1772.000000	15.824452
1771.000000	15.723741
1770.000000	15.631829
1769.000000	15.519820
1768.000000	15.422042
1767.000000	15.358921
1766.000000	15.290585
1765.000000	15.206496
1764.000000	15.139247
1763.000000	15.106329
1762.000000	15.099158
1761.000000	15.114260
1760.000000	15.137618
1759.000000	15.184551
1758.000000	15.236808
1757.000000	15.311227
1756.000000	15.360659
1755.000000	15.414220
1754.000000	15.448768
1753.000000	15.477993
1752.000000	15.510802
1751.000000	15.506565
1750.000000	15.486249
1749.000000	15.467346
1748.000000	15.425410
1747.000000	15.375652
1746.000000	15.315790
1745.000000	15.239850
1744.000000	15.131316
1743.000000	15.004097
1742.000000	14.875791
1741.000000	14.734122
1740.000000	14.581914
1739.000000	14.392117
1738.000000	14.214922
1737.000000	14.055870
1736.000000	13.921372
1735.000000	13.805994
1734.000000	13.724512
1733.000000	13.677905
1732.000000	13.679861
1731.000000	13.693332
1730.000000	13.757105
1729.000000	13.830438
1728.000000	13.917569
1727.000000	14.006330
1726.000000	14.075100
1725.000000	14.140285
1724.000000	14.209599
1723.000000	14.250448
1722.000000	14.296077
1721.000000	14.316611
1720.000000	14.342250
1719.000000	14.376798
1718.000000	14.413628
1717.000000	14.457954
1716.000000	14.515208
1715.000000	14.558665
1714.000000	14.596798
1713.000000	14.669154
1712.000000	14.731406
1711.000000	14.770082
1710.000000	14.807020
1709.000000	14.825815
1708.000000	14.821361
1707.000000	14.824946
1706.000000	14.786052
1705.000000	14.754764
1704.000000	14.717825
1703.000000	14.656008
1702.000000	14.576808
1701.000000	14.505648
1700.000000	14.395159
1699.000000	14.281954
1698.000000	14.152453
1697.000000	14.025451
1696.000000	13.923219
1695.000000	13.910290
1694.000000	13.878241
1693.000000	13.927564
1692.000000	14.021757
1691.000000	14.133115
1690.000000	14.256315
1689.000000	14.361589
1688.000000	14.469687
1687.000000	14.568225
1686.000000	14.598428
1685.000000	14.636996
1684.000000	14.689578
1683.000000	14.791267
1682.000000	14.995514
1681.000000	15.252995
1680.000000	15.587286
1679.000000	16.002842
1678.000000	16.467720
1677.000000	16.921191
1676.000000	17.364885
1675.000000	17.777181
1674.000000	18.124618
1673.000000	18.461190
1672.000000	18.757348
1671.000000	18.989842
1670.000000	19.193545
1669.000000	19.369219
1668.000000	19.543263
1667.000000	19.704379
1666.000000	19.823994
1665.000000	19.899392
1664.000000	19.970769
1663.000000	20.067352
1662.000000	20.159263
1661.000000	20.210542
1660.000000	20.244221
1659.000000	20.312557
1658.000000	20.335154
1657.000000	20.376003
1656.000000	20.397623
1655.000000	20.409900
1654.000000	20.411529
1653.000000	20.389041
1652.000000	20.378068
1651.000000	20.347539
1650.000000	20.335154
1649.000000	20.301910
1648.000000	20.282028
1647.000000	20.240744
1646.000000	20.192616
1645.000000	20.113959
1644.000000	20.083322
1643.000000	20.049643
1642.000000	19.990216
1641.000000	19.938503
1640.000000	19.900695
1639.000000	19.818997
1638.000000	19.789663
1637.000000	19.706444
1636.000000	19.641367
1635.000000	19.556844
1634.000000	19.501328
1633.000000	19.408765
1632.000000	19.360528
1631.000000	19.257209
1630.000000	19.191155
1629.000000	19.140854
1628.000000	19.053940
1627.000000	18.987560
1626.000000	18.896192
1625.000000	18.806128
1624.000000	18.723126
1623.000000	18.653160
1622.000000	18.567442
1621.000000	18.522356
1620.000000	18.425882
1619.000000	18.352005
1618.000000	18.286603
1617.000000	18.221092
1616.000000	18.156667
1615.000000	18.072578
1614.000000	18.028361
1613.000000	17.979037
1612.000000	17.901576
1611.000000	17.832262
1610.000000	17.757517
1609.000000	17.677665
1608.000000	17.644855
1607.000000	17.569458
1606.000000	17.509705
1605.000000	17.439087
1604.000000	17.386287
1603.000000	17.320124
1602.000000	17.263196
1601.000000	17.188994
1600.000000	17.108490
1599.000000	17.029833
1598.000000	16.988658
1597.000000	16.930969
1596.000000	16.871542
1595.000000	16.801251
1594.000000	16.752796
1593.000000	16.699997
1592.000000	16.661103
1591.000000	16.612323
1590.000000	16.554634
1589.000000	16.490209
1588.000000	16.435454
1587.000000	16.396560
1586.000000	16.361903
1585.000000	16.314970
1584.000000	16.276076
1583.000000	16.237399
1582.000000	16.208827
1581.000000	16.179711
1580.000000	16.148856
1579.000000	16.121261
1578.000000	16.089646
1577.000000	16.056076
1576.000000	16.043256
1575.000000	16.027938
1574.000000	16.011750
1573.000000	16.001321
1572.000000	15.992412
1571.000000	15.974377
1570.000000	15.993824
1569.000000	15.983286
1568.000000	15.992412
1567.000000	16.003493
1566.000000	15.994802
1565.000000	16.003276
1564.000000	15.995888
1563.000000	15.998605
1562.000000	16.010446
1561.000000	16.010990
1560.000000	16.000560
1559.000000	15.998822
1558.000000	16.002624
1557.000000	15.998279
1556.000000	15.978288
1555.000000	15.969814
1554.000000	15.946239
1553.000000	15.940916
1552.000000	15.921034
1551.000000	15.891918
1550.000000	15.870081
1549.000000	15.851503
1548.000000	15.840965
1547.000000	15.822822
1546.000000	15.786861
1545.000000	15.769805
1544.000000	15.749815
1543.000000	15.722328
1542.000000	15.722871
1541.000000	15.722654
1540.000000	15.695385
1539.000000	15.676590
1538.000000	15.664422
1537.000000	15.640086
1536.000000	15.609775
1535.000000	15.597281
1534.000000	15.580768
1533.000000	15.544373
1532.000000	15.511997
1531.000000	15.505914
1530.000000	15.488422
1529.000000	15.440402
1528.000000	15.408679
1527.000000	15.383800
1526.000000	15.355227
1525.000000	15.314378
1524.000000	15.274941
1523.000000	15.240175
1522.000000	15.193894
1521.000000	15.148156
1520.000000	15.114694
1519.000000	15.085361
1518.000000	15.063741
1517.000000	15.010507
1516.000000	14.952818
1515.000000	14.925005
1514.000000	14.888393
1513.000000	14.840373
1512.000000	14.805608
1511.000000	14.759218
1510.000000	14.703810
1509.000000	14.668719
1508.000000	14.637322
1507.000000	14.586586
1506.000000	14.522487
1505.000000	14.472295
1504.000000	14.437421
1503.000000	14.404828
1502.000000	14.366803
1501.000000	14.324324
1500.000000	14.279890
1499.000000	14.232631
1498.000000	14.191238
1497.000000	14.155386
1496.000000	14.128226
1495.000000	14.091722
1494.000000	14.062497
1493.000000	14.037292
1492.000000	14.017628
1491.000000	13.997312
1490.000000	13.969500
1489.000000	13.945164
1488.000000	13.916591
1487.000000	13.909747
1486.000000	13.886389
1485.000000	13.852819
1484.000000	13.839238
1483.000000	13.822833
1482.000000	13.815228
1481.000000	13.810340
1480.000000	13.804256
1479.000000	13.798063
1478.000000	13.792631
1477.000000	13.783614
1476.000000	13.776009
1475.000000	13.762320
1474.000000	13.759604
1473.000000	13.767752
1472.000000	13.773727
1471.000000	13.791762
1470.000000	13.787199
1469.000000	13.795456
1468.000000	13.797085
1467.000000	13.802952
1466.000000	13.814468
1465.000000	13.827288
1464.000000	13.846517
1463.000000	13.853796
1462.000000	13.876068
1461.000000	13.907140
1460.000000	13.934191
1459.000000	13.969826
1458.000000	14.004591
1457.000000	14.044354
1456.000000	14.076512
1455.000000	14.126596
1454.000000	14.175811
1453.000000	14.243386
1452.000000	14.302487
1451.000000	14.352897
1450.000000	14.420472
1449.000000	14.489351
1448.000000	14.529440
1447.000000	14.614941
1446.000000	14.695988
1445.000000	14.757371
1444.000000	14.842655
1443.000000	14.907514
1442.000000	14.974981
1441.000000	15.063850
1440.000000	15.155109
1439.000000	15.242566
1438.000000	15.338279
1437.000000	15.417914
1436.000000	15.518951
1435.000000	15.592284
1434.000000	15.686694
1433.000000	15.792945
1432.000000	15.884531
1431.000000	15.994476
1430.000000	16.109093
1429.000000	16.234466
1428.000000	16.361251
1427.000000	16.509113
1426.000000	16.653389
1425.000000	16.809616
1424.000000	16.964214
1423.000000	17.141734
1422.000000	17.312302
1421.000000	17.475808
1420.000000	17.670060
1419.000000	17.882346
1418.000000	18.136786
1417.000000	18.329299
1416.000000	18.514642
1415.000000	18.723995
1414.000000	19.012113
1413.000000	19.272419
1412.000000	19.539678
1411.000000	19.752942
1410.000000	20.035954
1409.000000	20.360142
1408.000000	20.714749
1407.000000	21.108902
1406.000000	21.430264
1405.000000	21.841583
1404.000000	22.253987
1403.000000	22.663241
1402.000000	23.037621
1401.000000	23.411349
1400.000000	23.904040
1399.000000	24.362835
1398.000000	24.661165
1397.000000	24.941787
1396.000000	25.283358
1395.000000	25.702063
1394.000000	26.093283
1393.000000	26.373796
1392.000000	26.677885
1391.000000	27.050527
1390.000000	27.437400
1389.000000	27.720847
1388.000000	28.196155
1387.000000	28.705686
1386.000000	29.193596
1385.000000	29.739196
1384.000000	30.259047
1383.000000	30.916765
1382.000000	31.534395
1381.000000	32.133555
1380.000000	32.572468
1379.000000	32.914472
1378.000000	33.236052
1377.000000	33.422373
1376.000000	33.683114
1375.000000	33.919845
1374.000000	34.207094
1373.000000	34.493908
1372.000000	34.820703
1371.000000	35.244841
1370.000000	35.672130
1369.000000	36.001749
1368.000000	36.370588
1367.000000	36.736168
1366.000000	37.018746
1365.000000	37.225383
1364.000000	37.514261
1363.000000	37.695476
1362.000000	37.901244
1361.000000	38.113965
1360.000000	38.318429
1359.000000	38.375140
1358.000000	38.513441
1357.000000	38.636641
1356.000000	38.822201
1355.000000	39.119880
1354.000000	39.541736
1353.000000	39.996946
1352.000000	40.513647
1351.000000	41.031434
1350.000000	41.579750
1349.000000	42.093952
1348.000000	42.516677
1347.000000	42.976450
1346.000000	43.412104
1345.000000	43.788330
1344.000000	44.192696
1343.000000	44.590868
1342.000000	44.941673
1341.000000	45.288784
1340.000000	45.652843
1339.000000	46.002561
1338.000000	46.345326
1337.000000	46.667992
1336.000000	47.014234
1335.000000	47.332012
1334.000000	47.639903
1333.000000	47.965611
1332.000000	48.250144
1331.000000	48.542282
1330.000000	48.838440
1329.000000	49.096573
1328.000000	49.374914
1327.000000	49.644128
1326.000000	49.878360
1325.000000	50.106291
1324.000000	50.337915
1323.000000	50.550419
1322.000000	50.762162
1321.000000	50.950112
1320.000000	51.160986
1319.000000	51.328186
1318.000000	51.517332
1317.000000	51.682576
1316.000000	51.843475
1315.000000	52.030447
1314.000000	52.163208
1313.000000	52.304334
1312.000000	52.446328
1311.000000	52.594407
1310.000000	52.703375
1309.000000	52.844936
1308.000000	52.941844
1307.000000	53.043098
1306.000000	53.138595
1305.000000	53.209103
1304.000000	53.274180
1303.000000	53.346861
1302.000000	53.399118
1301.000000	53.472125
1300.000000	53.499503
1299.000000	53.539918
1298.000000	53.573379
1297.000000	53.594782
1296.000000	53.637044
1295.000000	53.667789
1294.000000	53.667246
1293.000000	53.664204
1292.000000	53.687562
1291.000000	53.699078
1290.000000	53.694624
1289.000000	53.666160
1288.000000	53.630525
1287.000000	53.601735
1286.000000	53.559799
1285.000000	53.512431
1284.000000	53.471473
1283.000000	53.426930
1282.000000	53.366417
1281.000000	53.308293
1280.000000	53.255819
1279.000000	53.199434
1278.000000	53.132619
1277.000000	53.076669
1276.000000	53.016590
1275.000000	52.977913
1274.000000	52.923375
1273.000000	52.869163
1272.000000	52.830703
1271.000000	52.796590
1270.000000	52.744876
1269.000000	52.707504
1268.000000	52.663938
1267.000000	52.617765
1266.000000	52.561598
1265.000000	52.510862
1264.000000	52.467514
1263.000000	52.416561
1262.000000	52.366694
1261.000000	52.303464
1260.000000	52.248492
1259.000000	52.197973
1258.000000	52.133766
1257.000000	52.082378
1256.000000	52.010783
1255.000000	51.941470
1254.000000	51.876719
1253.000000	51.800778
1252.000000	51.712453
1251.000000	51.636295
1250.000000	51.552966
1249.000000	51.436828
1248.000000	51.341006
1247.000000	51.234211
1246.000000	51.102537
1245.000000	50.995307
1244.000000	50.873085
1243.000000	50.744345
1242.000000	50.593984
1241.000000	50.433846
1240.000000	50.288049
1239.000000	50.143012
1238.000000	49.984503
1237.000000	49.815782
1236.000000	49.643911
1235.000000	49.469649
1234.000000	49.301472
1233.000000	49.120909
1232.000000	48.935240
1231.000000	48.755003
1230.000000	48.553472
1229.000000	48.355310
1228.000000	48.154105
1227.000000	47.954312
1226.000000	47.754629
1225.000000	47.547666
1224.000000	47.340703
1223.000000	47.122115
1222.000000	46.903854
1221.000000	46.700150
1220.000000	46.487864
1219.000000	46.282748
1218.000000	46.087193
1217.000000	45.893376
1216.000000	45.719657
1215.000000	45.552892
1214.000000	45.375914
1213.000000	45.201436
1212.000000	45.050206
1211.000000	44.911905
1210.000000	44.754917
1209.000000	44.600646
1208.000000	44.476360
1207.000000	44.353811
1206.000000	44.233871
1205.000000	44.145762
1204.000000	44.079708
1203.000000	44.021585
1202.000000	43.973348
1201.000000	43.917723
1200.000000	43.857427
1199.000000	43.786918
1198.000000	43.702721
1197.000000	43.596034
1196.000000	43.438395
1195.000000	43.231106
1194.000000	42.981339
1193.000000	42.654761
1192.000000	42.268974
1191.000000	41.847117
1190.000000	41.374416
1189.000000	40.900303
1188.000000	40.505390
1187.000000	40.200106
1186.000000	40.015198
1185.000000	39.946536
1184.000000	40.032798
1183.000000	40.254101
1182.000000	40.598931
1181.000000	41.066199
1180.000000	41.605606
1179.000000	42.130238
1178.000000	42.639442
1177.000000	43.132242
1176.000000	43.559639
1175.000000	43.922395
1174.000000	44.270266
1173.000000	44.619006
1172.000000	44.961663
1171.000000	45.301603
1170.000000	45.651647
1169.000000	46.010492
1168.000000	46.382590
1167.000000	46.762294
1166.000000	47.119399
1165.000000	47.511053
1164.000000	47.900535
1163.000000	48.306638
1162.000000	48.715892
1161.000000	49.127536
1160.000000	49.532227
1159.000000	49.926923
1158.000000	50.298261
1157.000000	50.649392
1156.000000	50.988898
1155.000000	51.307110
1154.000000	51.585124
1153.000000	51.808275
1152.000000	51.975366
1151.000000	52.094220
1150.000000	52.196561
1149.000000	52.278042
1148.000000	52.358980
1147.000000	52.460343
1146.000000	52.581696
1145.000000	52.772797
1144.000000	53.046901
1143.000000	53.357291
1142.000000	53.721784
1141.000000	54.105181
1140.000000	54.508243
1139.000000	54.929230
1138.000000	55.352825
1137.000000	55.792064
1136.000000	56.250098
1135.000000	56.736923
1134.000000	57.215381
1133.000000	57.686996
1132.000000	58.048230
1131.000000	58.433148
1130.000000	58.780585
1129.000000	59.088694
1128.000000	59.352802
1127.000000	59.553898
1126.000000	59.713602
1125.000000	59.851142
1124.000000	59.968367
1123.000000	60.073641
1122.000000	60.155014
1121.000000	60.210204
1120.000000	60.261483
1119.000000	60.295379
1118.000000	60.333186
1117.000000	60.357414
1116.000000	60.365996
1115.000000	60.379142
1114.000000	60.369907
1113.000000	60.344159
1112.000000	60.316999
1111.000000	60.313848
1110.000000	60.308959
1109.000000	60.269522
1108.000000	60.289404
1107.000000	60.278540
1106.000000	60.235409
1105.000000	60.254095
1104.000000	60.226391
1103.000000	60.198470
1102.000000	60.178589
1101.000000	60.155666
1100.000000	60.131330
1099.000000	60.114164
1098.000000	60.055498
1097.000000	60.042895
1096.000000	60.000959
1095.000000	59.980535
1094.000000	59.944900
1093.000000	59.917631
1092.000000	59.835824
1091.000000	59.810184
1090.000000	59.774550
1089.000000	59.703498
1088.000000	59.642224
1087.000000	59.602352
1086.000000	59.531301
1085.000000	59.461987
1084.000000	59.410056
1083.000000	59.370511
1082.000000	59.290876
1081.000000	59.221563
1080.000000	59.152684
1079.000000	59.096733
1078.000000	59.049365
1077.000000	58.985049
1076.000000	58.906392
1075.000000	58.840121
1074.000000	58.777000
1073.000000	58.725612
1072.000000	58.655104
1071.000000	58.576556
1070.000000	58.505613
1069.000000	58.439124
1068.000000	58.384803
1067.000000	58.321247
1066.000000	58.255410
1065.000000	58.176971
1064.000000	58.106028
1063.000000	58.039322
1062.000000	57.949692
1061.000000	57.880922
1060.000000	57.813238
1059.000000	57.748596
1058.000000	57.669179
1057.000000	57.573574
1056.000000	57.490354
1055.000000	57.424408
1054.000000	57.337060
1053.000000	57.251885
1052.000000	57.166601
1051.000000	57.093377
1050.000000	57.012873
1049.000000	56.942799
1048.000000	56.885219
1047.000000	56.802325
1046.000000	56.751046
1045.000000	56.677713
1044.000000	56.631105
1043.000000	56.550602
1042.000000	56.469120
1041.000000	56.421752
1040.000000	56.358197
1039.000000	56.287145
1038.000000	56.208271
1037.000000	56.129614
1036.000000	56.051935
1035.000000	55.996637
1034.000000	55.896578
1033.000000	55.835629
1032.000000	55.737309
1031.000000	55.672449
1030.000000	55.567501
1029.000000	55.505467
1028.000000	55.421378
1027.000000	55.320993
1026.000000	55.246573
1025.000000	55.142277
1024.000000	55.036894
1023.000000	54.956608
1022.000000	54.857309
1021.000000	54.760292
1020.000000	54.672727
1019.000000	54.586574
1018.000000	54.493576
1017.000000	54.421764
1016.000000	54.348648
1015.000000	54.259670
1014.000000	54.188293
1013.000000	54.120174
1012.000000	54.083779
1011.000000	54.026851
1010.000000	53.980678
1009.000000	53.962426
1008.000000	53.912016
1007.000000	53.880075
1006.000000	53.855305
1005.000000	53.847483
1004.000000	53.831187
1003.000000	53.802831
1002.000000	53.769478
1001.000000	53.748836
1000.000000	53.723740
999.000000	53.718308
998.000000	53.677676
997.000000	53.632698
996.000000	53.626614
995.000000	53.625962
994.000000	53.613251
993.000000	53.586851
992.000000	53.558496
991.000000	53.533942
990.000000	53.524382
989.000000	53.507217
988.000000	53.499503
987.000000	53.488421
986.000000	53.469626
985.000000	53.483098
984.000000	53.497221
983.000000	53.490594
982.000000	53.476036
981.000000	53.487444
980.000000	53.491355
979.000000	53.493093
978.000000	53.490160
977.000000	53.483533
976.000000	53.487118
975.000000	53.493093
974.000000	53.492876
973.000000	53.493310
972.000000	53.510150
971.000000	53.523078
970.000000	53.514496
969.000000	53.504392
968.000000	53.509933
967.000000	53.526555
966.000000	53.532530
965.000000	53.526772
964.000000	53.525142
963.000000	53.552086
962.000000	53.594130
961.000000	53.607058
960.000000	53.610100
959.000000	53.625636
958.000000	53.658881
957.000000	53.690387
956.000000	53.699947
955.000000	53.708313
954.000000	53.707009
953.000000	53.718308
952.000000	53.734169
951.000000	53.749379
950.000000	53.758071
949.000000	53.756332
948.000000	53.765024
947.000000	53.764915
946.000000	53.779364
945.000000	53.782406
944.000000	53.760787
943.000000	53.753508
942.000000	53.763937
941.000000	53.752856
940.000000	53.711572
939.000000	53.697014
938.000000	53.718308
937.000000	53.700925
936.000000	53.652253
935.000000	53.641715
934.000000	53.622594
933.000000	53.622594
932.000000	53.613468
931.000000	53.589024
930.000000	53.560560
929.000000	53.558713
928.000000	53.541113
927.000000	53.503849
926.000000	53.474950
925.000000	53.470604
924.000000	53.451701
923.000000	53.408461
922.000000	53.384994
921.000000	53.361854
920.000000	53.324264
919.000000	53.291780
918.000000	53.258209
917.000000	53.213449
916.000000	53.206930
915.000000	53.159780
914.000000	53.078733
913.000000	53.012787
912.000000	52.969548
911.000000	52.933913
910.000000	52.887740
909.000000	52.848195
908.000000	52.813104
907.000000	52.783770
906.000000	52.755849
905.000000	52.742812
904.000000	52.737923
903.000000	52.746723
902.000000	52.742812
901.000000	52.738249
900.000000	52.721410
899.000000	52.712284
898.000000	52.725212
897.000000	52.752155
896.000000	52.757262
895.000000	52.751938
894.000000	52.719237
893.000000	52.691859
892.000000	52.684797
891.000000	52.639602
890.000000	52.615593
889.000000	52.619721
888.000000	52.584304
887.000000	52.511405
886.000000	52.477726
885.000000	52.405696
884.000000	52.348877
883.000000	52.271415
882.000000	52.212640
881.000000	52.124857
880.000000	52.057934
879.000000	51.965588
878.000000	51.871178
877.000000	51.764818
876.000000	51.605440
875.000000	51.425855
874.000000	51.251159
873.000000	51.099060
872.000000	50.941856
871.000000	50.873411
870.000000	50.875693
869.000000	50.882863
868.000000	50.911870
867.000000	50.934033
866.000000	50.964453
865.000000	50.953589
864.000000	50.959238
863.000000	50.968038
862.000000	50.980641
861.000000	50.980749
860.000000	51.027357
859.000000	51.019860
858.000000	51.016167
857.000000	50.284800
856.000000	51.568000
855.000000	51.195700
854.000000	51.449100
853.000000	51.428200
852.000000	51.281300
851.000000	51.114600
850.000000	51.535800
849.000000	51.208800
848.000000	51.035600
847.000000	51.209600
846.000000	51.176400
845.000000	50.886200
844.000000	50.935200
843.000000	51.054500
842.000000	51.026700
841.000000	51.058100
840.000000	50.964400
839.000000	51.059300
838.000000	50.650300
837.000000	50.919000
836.000000	50.842500
835.000000	50.828200
834.000000	50.586500
833.000000	50.597300
832.000000	50.619200
831.000000	50.460000
830.000000	50.323500
829.000000	50.351100
828.000000	50.320100
827.000000	50.327200
826.000000	50.224300
825.000000	50.199000
824.000000	50.155300
823.000000	49.921900
822.000000	49.837800
821.000000	49.825400
820.000000	49.571800
819.000000	49.691200
818.000000	49.584900
817.000000	49.545600
816.000000	49.412800
815.000000	49.240800
814.000000	49.280900
813.000000	49.088200
812.000000	49.083100
811.000000	49.113800
810.000000	48.947300
809.000000	48.823100
808.000000	48.513600
807.000000	48.589800
806.000000	48.413200
805.000000	48.388100
804.000000	48.269900
803.000000	48.204200
802.000000	48.177700
801.000000	47.957800
800.000000	47.829400
799.000000	47.755600
798.000000	47.558000
797.000000	47.405100
796.000000	47.329200
795.000000	47.296000
794.000000	47.094300
793.000000	46.876200
792.000000	46.747600
791.000000	46.719100
790.000000	46.708600
789.000000	46.554100
788.000000	46.311700
787.000000	46.181700
786.000000	46.092600
785.000000	45.984400
784.000000	45.824000
783.000000	45.625500
782.000000	45.442600
781.000000	45.397400
780.000000	45.255200
779.000000	45.024900
778.000000	44.863800
777.000000	44.593300
776.000000	44.594200
775.000000	44.453500
774.000000	44.241200
773.000000	44.121200
772.000000	44.008100
771.000000	43.849900
770.000000	43.638100
769.000000	43.427600
768.000000	43.359500
767.000000	43.121700
766.000000	43.038300
765.000000	42.844900
764.000000	42.614200
763.000000	42.400300
762.000000	42.232700
761.000000	42.026500
760.000000	41.925000
759.000000	41.690500
758.000000	41.587900
757.000000	41.356900
756.000000	41.168900
755.000000	40.911100
754.000000	40.773100
753.000000	40.582900
752.000000	40.370200
751.000000	40.218900
750.000000	40.022600
749.000000	39.828500
748.000000	39.689300
747.000000	39.485200
746.000000	39.311800
745.000000	39.038400
744.000000	38.840600
743.000000	38.644500
742.000000	38.446000
741.000000	38.178200
740.000000	38.026800
739.000000	37.830500
738.000000	37.658600
737.000000	37.459400
736.000000	37.261500
735.000000	36.992600
734.000000	36.807700
733.000000	36.587400
732.000000	36.443800
731.000000	36.206100
730.000000	35.971000
729.000000	35.756000
728.000000	35.597700
727.000000	35.387600
726.000000	35.180500
725.000000	34.896600
724.000000	34.735800
723.000000	34.507400
722.000000	34.290100
721.000000	34.067500
720.000000	33.830700
719.000000	33.560100
718.000000	33.295200
717.000000	33.135600
716.000000	32.935300
715.000000	32.709100
714.000000	32.506700
713.000000	32.277200
712.000000	32.054200
711.000000	31.849900
710.000000	31.669400
709.000000	31.475900
708.000000	31.185300
707.000000	30.993700
706.000000	30.806000
705.000000	30.608200
704.000000	30.401500
703.000000	30.192100
702.000000	29.992100
701.000000	29.729700
700.000000	29.501400
699.000000	29.324600
698.000000	29.162500
697.000000	28.960600
696.000000	28.740100
695.000000	28.531300
694.000000	28.366500
693.000000	28.145500
692.000000	27.980400
691.000000	27.808500
690.000000	27.658600
689.000000	27.467500
688.000000	27.248700
687.000000	27.086800
686.000000	26.948200
685.000000	26.795800
684.000000	26.623500
683.000000	26.444000
682.000000	26.305000
681.000000	26.142000
680.000000	25.973000
679.000000	25.833500
678.000000	25.716800
677.000000	25.578100
676.000000	25.436700
675.000000	25.315100
674.000000	25.176000
673.000000	25.059800
672.000000	24.918900
671.000000	24.785200
670.000000	24.675900
669.000000	24.562400
668.000000	24.462000
667.000000	24.346200
666.000000	24.234400
665.000000	24.152300
664.000000	24.059900
663.000000	23.965000
662.000000	23.876300
661.000000	23.758000
660.000000	23.664000
659.000000	23.607500
658.000000	23.499000
657.000000	23.387700
656.000000	23.306100
655.000000	23.253600
654.000000	23.159500
653.000000	23.072700
652.000000	23.034600
651.000000	22.975500
650.000000	22.892300
649.000000	22.815900
648.000000	22.762300
647.000000	22.703500
646.000000	22.637900
645.000000	22.563700
644.000000	22.505000
643.000000	22.461400
642.000000	22.408600
641.000000	22.349200
640.000000	22.302100
639.000000	22.261400
638.000000	22.243000
637.000000	22.203000
636.000000	22.160300
635.000000	22.143700
634.000000	22.117100
633.000000	22.091400
632.000000	22.076000
631.000000	22.062700
630.000000	22.036000
629.000000	22.034300
628.000000	22.044300
627.000000	22.045700
626.000000	22.078400
625.000000	22.109000
624.000000	22.122700
623.000000	22.167900
622.000000	22.209800
621.000000	22.240800
620.000000	22.296500
619.000000	22.354000
618.000000	22.397900
617.000000	22.457700
616.000000	22.557000
615.000000	22.634400
614.000000	22.698200
613.000000	22.777800
612.000000	22.870800
611.000000	22.954600
610.000000	23.034600
609.000000	23.125900
608.000000	23.222700
607.000000	23.294400
606.000000	23.378000
605.000000	23.468500
604.000000	23.552300
603.000000	23.636700
602.000000	23.724200
601.000000	23.812000
600.000000	23.885000
599.000000	23.977100
598.000000	24.049300
597.000000	24.118300
596.000000	24.184900
595.000000	24.250200
594.000000	24.313700
593.000000	24.362700
592.000000	24.421000
591.000000	24.474200
590.000000	24.488600
589.000000	24.518600
588.000000	24.558700
587.000000	24.594700
586.000000	24.602000
585.000000	24.611400
584.000000	24.597000
583.000000	24.620500
582.000000	24.618600
581.000000	24.588000
580.000000	24.547600
579.000000	24.523400
578.000000	24.497200
577.000000	24.453300
576.000000	24.395400
575.000000	24.341300
574.000000	24.276500
573.000000	24.211400
572.000000	24.103100
571.000000	24.017200
570.000000	23.929800
569.000000	23.826000
568.000000	23.711900
567.000000	23.584300
566.000000	23.443500
565.000000	23.314500
564.000000	23.173300
563.000000	23.022600
562.000000	22.848900
561.000000	22.682300
560.000000	22.494700
559.000000	22.292400
558.000000	22.099000
557.000000	21.898600
556.000000	21.703200
555.000000	21.479700
554.000000	21.259100
553.000000	21.030700
552.000000	20.790400
551.000000	20.538500
550.000000	20.288000
549.000000	20.023400
548.000000	19.771400
547.000000	19.503000
546.000000	19.239100
545.000000	18.949500
544.000000	18.682600
543.000000	18.391600
542.000000	18.111400
541.000000	17.817000
540.000000	17.529800
539.000000	17.238800
538.000000	16.950300
537.000000	16.663300
536.000000	16.395400
535.000000	16.112100
534.000000	15.822300
533.000000	15.542100
532.000000	15.256200
531.000000	14.979400
530.000000	14.714900
529.000000	14.441800
528.000000	14.176400
527.000000	13.908700
526.000000	13.662500
525.000000	13.399400
524.000000	13.152100
523.000000	12.900100
522.000000	12.661600
521.000000	12.429300
520.000000	12.195800
519.000000	11.976200
518.000000	11.759500
517.000000	11.555300
516.000000	11.347600
515.000000	11.153100
514.000000	10.953600
513.000000	10.772300
512.000000	10.599900
511.000000	10.431700
510.000000	10.266600
509.000000	10.122000
508.000000	9.968600
507.000000	9.819800
506.000000	9.686100
505.000000	9.573000
504.000000	9.433100
503.000000	9.325300
502.000000	9.206800
501.000000	9.106600
500.000000	8.998100
499.000000	8.896600
498.000000	8.789000
497.000000	8.701000
496.000000	8.640400
495.000000	8.538700
494.000000	8.488000
493.000000	8.403900
492.000000	8.332700
491.000000	8.258700
490.000000	8.190100
489.000000	8.142900
488.000000	8.096900
487.000000	8.043900
486.000000	7.978300
485.000000	7.927300
484.000000	7.885300
483.000000	7.828500
482.000000	7.801200
481.000000	7.739200
480.000000	7.680500
479.000000	7.646500
478.000000	7.590600
477.000000	7.533600
476.000000	7.487700
475.000000	7.441900
474.000000	7.378100
473.000000	7.322600
472.000000	7.280700
471.000000	7.239800
470.000000	7.213500
469.000000	7.151200
468.000000	7.100700
467.000000	7.072700
466.000000	7.026600
465.000000	6.995700
464.000000	6.953100
463.000000	6.933200
462.000000	6.885400
461.000000	6.844200
460.000000	6.834100
459.000000	6.786600
458.000000	6.763300
457.000000	6.723700
456.000000	6.697100
455.000000	6.647600
454.000000	6.621000
453.000000	6.606700
452.000000	6.574300
451.000000	6.530900
450.000000	6.495000
449.000000	6.471400
448.000000	6.447400
447.000000	6.423500
446.000000	6.379900
445.000000	6.347300
444.000000	6.317900
443.000000	6.291200
442.000000	6.255400
441.000000	6.221000
440.000000	6.178100
439.000000	6.144900
438.000000	6.110500
437.000000	6.080500
436.000000	6.061800
435.000000	6.016200
434.000000	5.980600
433.000000	5.955800
432.000000	5.920200
431.000000	5.890500
430.000000	5.858300
429.000000	5.825300
428.000000	5.790000
427.000000	5.765400
426.000000	5.756900
425.000000	5.718500
424.000000	5.687600
423.000000	5.645200
422.000000	5.619200
421.000000	5.594800
420.000000	5.573100
419.000000	5.536500
418.000000	5.520100
417.000000	5.480800
416.000000	5.464100
415.000000	5.424100
414.000000	5.404100
413.000000	5.365600
412.000000	5.324800
411.000000	5.301000
410.000000	5.281900
409.000000	5.255600
408.000000	5.235200
407.000000	5.190100
406.000000	5.164200
405.000000	5.138800
404.000000	5.105100
403.000000	5.081100
402.000000	5.045700
401.000000	5.020700
400.000000	4.986300
399.000000	4.947100
398.000000	4.922900
397.000000	4.901600
396.000000	4.861400
395.000000	4.824600
394.000000	4.794400
393.000000	4.767700
392.000000	4.752000
391.000000	4.718100
390.000000	4.685800
389.000000	4.680900
388.000000	4.636000
387.000000	4.597500
386.000000	4.581200
385.000000	4.566100
384.000000	4.532600
383.000000	4.487300
382.000000	4.447200
381.000000	4.431200
380.000000	4.418100
379.000000	4.389400
378.000000	4.366900
377.000000	4.352600
376.000000	4.287100
375.000000	4.186900
374.000000	4.239900
373.000000	4.236100
372.000000	4.189100
371.000000	4.171700
370.000000	4.147500
369.000000	4.093200
368.000000	4.132800
367.000000	4.168600
366.000000	4.082000
365.000000	4.035800
364.000000	4.094500
363.000000	4.133500
362.000000	4.104200
361.000000	4.081500
360.000000	4.052300
359.000000	3.998100
358.000000	4.018600
357.000000	4.013900
356.000000	4.051800
355.000000	4.103200
354.000000	4.061900
353.000000	4.020300
352.000000	4.038600
351.000000	4.006700
350.000000	3.973400
349.000000	4.072100
348.000000	4.048600
347.000000	3.984300
346.000000	3.972700
345.000000	3.983600
344.000000	3.989800
343.000000	4.016100
342.000000	4.010600
341.000000	3.968500
340.000000	3.963200
339.000000	4.005200
338.000000	4.067400
337.000000	4.066700
336.000000	4.013100
335.000000	3.995300
334.000000	3.944300
333.000000	3.968500
332.000000	4.015600
331.000000	4.013700
330.000000	4.042800
329.000000	4.042400
328.000000	4.058800
327.000000	4.102800
326.000000	4.085800
325.000000	4.073300
324.000000	3.984600
323.000000	3.953400
322.000000	3.931800
321.000000	3.928200
320.000000	3.962600
319.000000	4.004800
318.000000	3.887700
317.000000	3.871600
316.000000	3.998600
315.000000	4.026800
314.000000	4.026500
313.000000	4.020500
312.000000	4.029700
311.000000	4.050200
310.000000	4.049900
309.000000	4.039100
308.000000	4.036700
307.000000	4.019900
306.000000	4.026500
305.000000	4.042800
304.000000	4.058200
303.000000	4.071600
302.000000	4.064300
301.000000	4.071200
300.000000	4.066100
299.000000	4.067600
298.000000	4.081300
297.000000	4.059900
296.000000	4.077000
295.000000	4.109400
294.000000	4.094200
293.000000	4.098600
292.000000	4.110200
291.000000	4.107400
290.000000	4.121100
289.000000	4.121300
288.000000	4.109200
287.000000	4.125800
286.000000	4.130200
285.000000	4.145500
284.000000	4.146100
283.000000	4.168500
282.000000	4.182100
281.000000	4.159600
280.000000	4.163400
279.000000	4.174800
278.000000	4.185300
277.000000	4.192400
276.000000	4.206300
275.000000	4.196600
274.000000	4.202500
273.000000	4.228400
272.000000	4.242500
271.000000	4.239200
270.000000	4.249100
269.000000	4.275500
268.000000	4.298000
267.000000	4.312500
266.000000	4.302700
265.000000	4.344400
264.000000	4.319700
263.000000	4.346300
262.000000	4.356600
261.000000	4.401200
260.000000	4.403100
259.000000	4.410100
258.000000	4.429100
257.000000	4.407600
256.000000	4.409800
255.000000	4.455100
254.000000	4.450600
253.000000	4.475700
252.000000	4.488300
251.000000	4.483200
250.000000	4.498500
