PE UV       SUBTECH     SPECTRUM    ASCII       PEDS        4.00        
   -1
CICIMAUCR0248-1.ASC
24/06/27
12:57:29.00
24/06/27
12:57:29.00
Vinicio Soto Monge
C. resplendens. Sex F. Ventral
250,000000
1
Lambda 1050
1050L1511233
PerkinElmer UV WinLab 6.3.2.0749 / 2.02.05 Lambda 900 UV/VIS/NIR, Aug  7 2015 09:38:08

0
0
3350/servo 860,8/2
0
0
UV/VIS
1
1
1
DoubleDePol,CommonBeamDepol,RBeamAtt,SBeamAtt,60mm sphere, WB InGaAs Detector
0
0
0
0
Program
Program
3350/servo 860,8/2
3350/0,2 860,8/0,2
3350/0,2 860,8/0,2
0
15.00
 
 
 
0
 
860,8
319,2
860,8
Front
100
on
S:100 R:100
0
0
0
0
 
0
 
 
 
0
 
 
0
0
0
0
0
 
 
 
 
0
0


0
0
#HDR
-1
-1
#GR
nm
%R
1.0
0.0
2500,000000
-1,000000
2251
8
59,749000
4,287000
#DATA
2482.000000	5.599737
2481.000000	5.584282
2480.000000	5.625679
2479.000000	5.577438
2478.000000	5.545867
2477.000000	5.587594
2476.000000	5.564081
2475.000000	5.606581
2474.000000	5.568718
2473.000000	5.576445
2472.000000	5.575451
2471.000000	5.577659
2470.000000	5.618945
2469.000000	5.554698
2468.000000	5.602055
2467.000000	5.591899
2466.000000	5.587925
2465.000000	5.541562
2464.000000	5.526769
2463.000000	5.602166
2462.000000	5.651179
2461.000000	5.649412
2460.000000	5.598633
2459.000000	5.623250
2458.000000	5.633185
2457.000000	5.670276
2456.000000	5.653828
2455.000000	5.646653
2454.000000	5.674692
2453.000000	5.737172
2452.000000	5.715977
2451.000000	5.748763
2450.000000	5.756601
2449.000000	5.789718
2448.000000	5.825815
2447.000000	5.839945
2446.000000	5.857276
2445.000000	5.864672
2444.000000	5.924062
2443.000000	5.914348
2442.000000	5.925055
2441.000000	5.959166
2440.000000	5.998575
2439.000000	6.020322
2438.000000	6.048913
2437.000000	6.060172
2436.000000	6.084900
2435.000000	6.091081
2434.000000	6.133582
2433.000000	6.166919
2432.000000	6.173653
2431.000000	6.193302
2430.000000	6.199595
2429.000000	6.229179
2428.000000	6.241763
2427.000000	6.258432
2426.000000	6.275653
2425.000000	6.295854
2424.000000	6.333608
2423.000000	6.363192
2422.000000	6.369263
2421.000000	6.390348
2420.000000	6.408010
2419.000000	6.400835
2418.000000	6.419049
2417.000000	6.443445
2416.000000	6.463867
2415.000000	6.472919
2414.000000	6.479874
2413.000000	6.505374
2412.000000	6.521380
2411.000000	6.545004
2410.000000	6.561452
2409.000000	6.564322
2408.000000	6.565205
2407.000000	6.585186
2406.000000	6.600640
2405.000000	6.606491
2404.000000	6.621504
2403.000000	6.630335
2402.000000	6.651419
2401.000000	6.641153
2400.000000	6.654842
2399.000000	6.665108
2398.000000	6.682991
2397.000000	6.704958
2396.000000	6.733549
2395.000000	6.726374
2394.000000	6.729244
2393.000000	6.756069
2392.000000	6.765783
2391.000000	6.765894
2390.000000	6.774835
2389.000000	6.788634
2388.000000	6.792277
2387.000000	6.809387
2386.000000	6.834004
2385.000000	6.833562
2384.000000	6.843498
2383.000000	6.858290
2382.000000	6.860829
2381.000000	6.855972
2380.000000	6.841179
2379.000000	6.852991
2378.000000	6.851225
2377.000000	6.856634
2376.000000	6.856965
2375.000000	6.854316
2374.000000	6.860939
2373.000000	6.847030
2372.000000	6.848465
2371.000000	6.851004
2370.000000	6.845485
2369.000000	6.842504
2368.000000	6.838861
2367.000000	6.829478
2366.000000	6.821861
2365.000000	6.818770
2364.000000	6.809829
2363.000000	6.802543
2362.000000	6.791725
2361.000000	6.767549
2360.000000	6.767549
2359.000000	6.754965
2358.000000	6.741608
2357.000000	6.734874
2356.000000	6.727036
2355.000000	6.730127
2354.000000	6.731452
2353.000000	6.733660
2352.000000	6.721738
2351.000000	6.709926
2350.000000	6.708932
2349.000000	6.734322
2348.000000	6.739069
2347.000000	6.729686
2346.000000	6.753420
2345.000000	6.773069
2344.000000	6.775497
2343.000000	6.785764
2342.000000	6.785874
2341.000000	6.794484
2340.000000	6.812588
2339.000000	6.822523
2338.000000	6.828153
2337.000000	6.845153
2336.000000	6.858290
2335.000000	6.863147
2334.000000	6.852991
2333.000000	6.842946
2332.000000	6.856965
2331.000000	6.875842
2330.000000	6.863478
2329.000000	6.850452
2328.000000	6.833894
2327.000000	6.847361
2326.000000	6.834004
2325.000000	6.814134
2324.000000	6.794705
2323.000000	6.786978
2322.000000	6.776712
2321.000000	6.765783
2320.000000	6.736971
2319.000000	6.722731
2318.000000	6.693809
2317.000000	6.666653
2316.000000	6.647114
2315.000000	6.609251
2314.000000	6.575361
2313.000000	6.545445
2312.000000	6.535731
2311.000000	6.515309
2310.000000	6.489478
2309.000000	6.460335
2308.000000	6.442452
2307.000000	6.424017
2306.000000	6.409997
2305.000000	6.405140
2304.000000	6.393328
2303.000000	6.387588
2302.000000	6.398517
2301.000000	6.405802
2300.000000	6.417393
2299.000000	6.430751
2298.000000	6.449075
2297.000000	6.474244
2296.000000	6.486497
2295.000000	6.539153
2294.000000	6.555380
2293.000000	6.555160
2292.000000	6.583751
2291.000000	6.601855
2290.000000	6.620510
2289.000000	6.634751
2288.000000	6.641595
2287.000000	6.657601
2286.000000	6.669634
2285.000000	6.668640
2284.000000	6.650536
2283.000000	6.657822
2282.000000	6.658816
2281.000000	6.656939
2280.000000	6.640270
2279.000000	6.641153
2278.000000	6.627465
2277.000000	6.634088
2276.000000	6.607484
2275.000000	6.593023
2274.000000	6.613445
2273.000000	6.596666
2272.000000	6.554056
2271.000000	6.567523
2270.000000	6.569179
2269.000000	6.569731
2268.000000	6.584744
2267.000000	6.596225
2266.000000	6.637069
2265.000000	6.681666
2264.000000	6.691381
2263.000000	6.717764
2262.000000	6.766114
2261.000000	6.827712
2260.000000	6.905095
2259.000000	6.976517
2258.000000	7.061517
2257.000000	7.146296
2256.000000	7.208556
2255.000000	7.289141
2254.000000	7.399420
2253.000000	7.486076
2252.000000	7.563238
2251.000000	7.680472
2250.000000	7.768784
2249.000000	7.860186
2248.000000	7.946070
2247.000000	8.006894
2246.000000	8.092777
2245.000000	8.174245
2244.000000	8.264102
2243.000000	8.309031
2242.000000	8.362680
2241.000000	8.432226
2240.000000	8.488083
2239.000000	8.506518
2238.000000	8.549680
2237.000000	8.603330
2236.000000	8.602226
2235.000000	8.688992
2234.000000	8.707538
2233.000000	8.722219
2232.000000	8.733148
2231.000000	8.741979
2230.000000	8.754674
2229.000000	8.771895
2228.000000	8.798278
2227.000000	8.779732
2226.000000	8.800817
2225.000000	8.789116
2224.000000	8.790219
2223.000000	8.771564
2222.000000	8.768252
2221.000000	8.755116
2220.000000	8.748382
2219.000000	8.727077
2218.000000	8.698486
2217.000000	8.685460
2216.000000	8.664596
2215.000000	8.641525
2214.000000	8.614921
2213.000000	8.625076
2212.000000	8.584453
2211.000000	8.552440
2210.000000	8.543830
2209.000000	8.525505
2208.000000	8.527382
2207.000000	8.488414
2206.000000	8.489297
2205.000000	8.480135
2204.000000	8.482122
2203.000000	8.453972
2202.000000	8.435758
2201.000000	8.434654
2200.000000	8.416440
2199.000000	8.415667
2198.000000	8.400985
2197.000000	8.410921
2196.000000	8.403083
2195.000000	8.379901
2194.000000	8.380232
2193.000000	8.358044
2192.000000	8.354401
2191.000000	8.350648
2190.000000	8.350869
2189.000000	8.358817
2188.000000	8.359479
2187.000000	8.346674
2186.000000	8.320511
2185.000000	8.326914
2184.000000	8.316096
2183.000000	8.301193
2182.000000	8.293576
2181.000000	8.290596
2180.000000	8.269843
2179.000000	8.270836
2178.000000	8.246771
2177.000000	8.262115
2176.000000	8.237167
2175.000000	8.237167
2174.000000	8.239706
2173.000000	8.226018
2172.000000	8.227232
2171.000000	8.251739
2170.000000	8.241914
2169.000000	8.263771
2168.000000	8.263219
2167.000000	8.267193
2166.000000	8.253946
2165.000000	8.243349
2164.000000	8.282096
2163.000000	8.284855
2162.000000	8.278232
2161.000000	8.296005
2160.000000	8.307154
2159.000000	8.311901
2158.000000	8.338946
2157.000000	8.365661
2156.000000	8.377804
2155.000000	8.381226
2154.000000	8.420304
2153.000000	8.440395
2152.000000	8.467550
2151.000000	8.493161
2150.000000	8.510382
2149.000000	8.523518
2148.000000	8.553434
2147.000000	8.595492
2146.000000	8.622096
2145.000000	8.648810
2144.000000	8.665369
2143.000000	8.687999
2142.000000	8.703453
2141.000000	8.733921
2140.000000	8.764609
2139.000000	8.783596
2138.000000	8.809317
2137.000000	8.818921
2136.000000	8.846518
2135.000000	8.873674
2134.000000	8.872791
2133.000000	8.882174
2132.000000	8.912752
2131.000000	8.923791
2130.000000	8.938694
2129.000000	8.947745
2128.000000	8.944103
2127.000000	8.951720
2126.000000	8.977109
2125.000000	8.984174
2124.000000	8.993005
2123.000000	8.986382
2122.000000	8.989583
2121.000000	8.988479
2120.000000	8.988038
2119.000000	8.996869
2118.000000	8.987927
2117.000000	8.987265
2116.000000	8.990466
2115.000000	8.993668
2114.000000	8.981635
2113.000000	8.968720
2112.000000	8.958453
2111.000000	8.943992
2110.000000	8.944655
2109.000000	8.932622
2108.000000	8.925999
2107.000000	8.914187
2106.000000	8.910103
2105.000000	8.899064
2104.000000	8.882726
2103.000000	8.864843
2102.000000	8.851927
2101.000000	8.837466
2100.000000	8.821570
2099.000000	8.830732
2098.000000	8.828635
2097.000000	8.799051
2096.000000	8.786687
2095.000000	8.792206
2094.000000	8.782051
2093.000000	8.772667
2092.000000	8.765823
2091.000000	8.756109
2090.000000	8.746505
2089.000000	8.731271
2088.000000	8.723434
2087.000000	8.705219
2086.000000	8.706765
2085.000000	8.711180
2084.000000	8.692745
2083.000000	8.682258
2082.000000	8.668128
2081.000000	8.647927
2080.000000	8.636778
2079.000000	8.615252
2078.000000	8.583901
2077.000000	8.574408
2076.000000	8.562044
2075.000000	8.539856
2074.000000	8.512589
2073.000000	8.482784
2072.000000	8.462804
2071.000000	8.431011
2070.000000	8.395576
2069.000000	8.366875
2068.000000	8.324154
2067.000000	8.289713
2066.000000	8.259797
2065.000000	8.226570
2064.000000	8.199635
2063.000000	8.185394
2062.000000	8.152829
2061.000000	8.112979
2060.000000	8.082953
2059.000000	8.068271
2058.000000	8.069154
2057.000000	8.048622
2056.000000	8.027868
2055.000000	8.019037
2054.000000	8.010648
2053.000000	8.013628
2052.000000	8.009654
2051.000000	8.004907
2050.000000	8.018264
2049.000000	8.052816
2048.000000	8.081187
2047.000000	8.110329
2046.000000	8.139583
2045.000000	8.163316
2044.000000	8.204933
2043.000000	8.240700
2042.000000	8.268628
2041.000000	8.302959
2040.000000	8.336959
2039.000000	8.369745
2038.000000	8.400654
2037.000000	8.434765
2036.000000	8.482674
2035.000000	8.530804
2034.000000	8.553102
2033.000000	8.560167
2032.000000	8.581362
2031.000000	8.610726
2030.000000	8.632914
2029.000000	8.646713
2028.000000	8.659408
2027.000000	8.676408
2026.000000	8.696057
2025.000000	8.711512
2024.000000	8.711070
2023.000000	8.722440
2022.000000	8.712726
2021.000000	8.733038
2020.000000	8.735797
2019.000000	8.743856
2018.000000	8.750921
2017.000000	8.751473
2016.000000	8.762622
2015.000000	8.740434
2014.000000	8.751693
2013.000000	8.748271
2012.000000	8.733921
2011.000000	8.729726
2010.000000	8.726635
2009.000000	8.707096
2008.000000	8.683693
2007.000000	8.673869
2006.000000	8.674421
2005.000000	8.636999
2004.000000	8.632914
2003.000000	8.596706
2002.000000	8.570213
2001.000000	8.554427
2000.000000	8.513252
1999.000000	8.509719
1998.000000	8.483998
1997.000000	8.443044
1996.000000	8.410258
1995.000000	8.383102
1994.000000	8.371511
1993.000000	8.334200
1992.000000	8.290706
1991.000000	8.258362
1990.000000	8.212992
1989.000000	8.176122
1988.000000	8.153271
1987.000000	8.118609
1986.000000	8.090349
1985.000000	8.069485
1984.000000	8.005349
1983.000000	7.957219
1982.000000	7.953907
1981.000000	7.918251
1980.000000	7.878290
1979.000000	7.852790
1978.000000	7.810842
1977.000000	7.774745
1976.000000	7.739420
1975.000000	7.681245
1974.000000	7.669543
1973.000000	7.642719
1972.000000	7.598452
1971.000000	7.567102
1970.000000	7.549550
1969.000000	7.496894
1968.000000	7.485855
1967.000000	7.447771
1966.000000	7.408913
1965.000000	7.366413
1964.000000	7.362771
1963.000000	7.321595
1962.000000	7.317069
1961.000000	7.280641
1960.000000	7.252712
1959.000000	7.216946
1958.000000	7.189128
1957.000000	7.144309
1956.000000	7.143647
1955.000000	7.120576
1954.000000	7.095517
1953.000000	7.070679
1952.000000	7.022881
1951.000000	7.032816
1950.000000	6.984907
1949.000000	6.954550
1948.000000	6.983803
1947.000000	6.936446
1946.000000	6.924744
1945.000000	6.907082
1944.000000	6.880257
1943.000000	6.858511
1942.000000	6.847582
1941.000000	6.855640
1940.000000	6.832348
1939.000000	6.818108
1938.000000	6.828595
1937.000000	6.818660
1936.000000	6.813582
1935.000000	6.838751
1934.000000	6.834004
1933.000000	6.842062
1932.000000	6.838640
1931.000000	6.846368
1930.000000	6.868446
1929.000000	6.893173
1928.000000	6.887764
1927.000000	6.934017
1926.000000	6.973978
1925.000000	6.973095
1924.000000	7.011842
1923.000000	7.066153
1922.000000	7.112848
1921.000000	7.137465
1920.000000	7.170030
1919.000000	7.252712
1918.000000	7.284504
1917.000000	7.336719
1916.000000	7.392355
1915.000000	7.450310
1914.000000	7.498660
1913.000000	7.602758
1912.000000	7.688420
1911.000000	7.770219
1910.000000	7.847492
1909.000000	7.920128
1908.000000	8.008550
1907.000000	8.082842
1906.000000	8.216966
1905.000000	8.321394
1904.000000	8.477927
1903.000000	8.600901
1902.000000	8.740765
1901.000000	8.880629
1900.000000	8.998966
1899.000000	9.191155
1898.000000	9.394382
1897.000000	9.560077
1896.000000	9.728090
1895.000000	9.896103
1894.000000	10.088402
1893.000000	10.296045
1892.000000	10.509980
1891.000000	10.756039
1890.000000	11.030578
1889.000000	11.267033
1888.000000	11.539695
1887.000000	11.806948
1886.000000	12.071773
1885.000000	12.361988
1884.000000	12.679800
1883.000000	13.023774
1882.000000	13.385962
1881.000000	13.718566
1880.000000	14.082521
1879.000000	14.402982
1878.000000	14.730177
1877.000000	15.076801
1876.000000	15.405100
1875.000000	15.734944
1874.000000	16.103646
1873.000000	16.433601
1872.000000	16.776471
1871.000000	17.082361
1870.000000	17.411322
1869.000000	17.712906
1868.000000	18.020342
1867.000000	18.252712
1866.000000	18.470952
1865.000000	18.659056
1864.000000	18.835680
1863.000000	18.984706
1862.000000	19.110219
1861.000000	19.291148
1860.000000	19.454745
1859.000000	19.612382
1858.000000	19.762953
1857.000000	19.885486
1856.000000	19.996979
1855.000000	20.076681
1854.000000	20.176473
1853.000000	20.235421
1852.000000	20.268427
1851.000000	20.328479
1850.000000	20.366785
1849.000000	20.393830
1848.000000	20.434785
1847.000000	20.490642
1846.000000	20.517467
1845.000000	20.504109
1844.000000	20.471103
1843.000000	20.449135
1842.000000	20.449798
1841.000000	20.487993
1840.000000	20.507973
1839.000000	20.493291
1838.000000	20.470109
1837.000000	20.456531
1836.000000	20.434454
1835.000000	20.408733
1834.000000	20.376830
1833.000000	20.339077
1832.000000	20.283440
1831.000000	20.254739
1830.000000	20.233434
1829.000000	20.185304
1828.000000	20.150531
1827.000000	20.109135
1826.000000	20.059681
1825.000000	20.023914
1824.000000	19.978213
1823.000000	19.935051
1822.000000	19.912310
1821.000000	19.905687
1820.000000	19.907784
1819.000000	19.884603
1818.000000	19.855018
1817.000000	19.821349
1816.000000	19.813732
1815.000000	19.806999
1814.000000	19.782271
1813.000000	19.754895
1812.000000	19.741758
1811.000000	19.716479
1810.000000	19.679278
1809.000000	19.647044
1808.000000	19.622206
1807.000000	19.591297
1806.000000	19.548356
1805.000000	19.523628
1804.000000	19.494154
1803.000000	19.440394
1802.000000	19.395907
1801.000000	19.377914
1800.000000	19.339057
1799.000000	19.302076
1798.000000	19.254719
1797.000000	19.207693
1796.000000	19.170161
1795.000000	19.120927
1794.000000	19.074784
1793.000000	19.044868
1792.000000	19.017160
1791.000000	18.981725
1790.000000	18.944414
1789.000000	18.907102
1788.000000	18.867251
1787.000000	18.837446
1786.000000	18.801459
1785.000000	18.755537
1784.000000	18.722972
1783.000000	18.688972
1782.000000	18.632452
1781.000000	18.566108
1780.000000	18.524933
1779.000000	18.498991
1778.000000	18.461790
1777.000000	18.419069
1776.000000	18.359569
1775.000000	18.303933
1774.000000	18.243550
1773.000000	18.178309
1772.000000	18.115829
1771.000000	18.046725
1770.000000	17.992524
1769.000000	17.935231
1768.000000	17.870101
1767.000000	17.799010
1766.000000	17.743816
1765.000000	17.700322
1764.000000	17.642919
1763.000000	17.600751
1762.000000	17.596225
1761.000000	17.594900
1760.000000	17.611017
1759.000000	17.649322
1758.000000	17.674160
1757.000000	17.719309
1756.000000	17.771413
1755.000000	17.810932
1754.000000	17.854868
1753.000000	17.895822
1752.000000	17.914920
1751.000000	17.919004
1750.000000	17.931368
1749.000000	17.942848
1748.000000	17.933244
1747.000000	17.898140
1746.000000	17.865023
1745.000000	17.828374
1744.000000	17.803316
1743.000000	17.741939
1742.000000	17.646562
1741.000000	17.550082
1740.000000	17.440796
1739.000000	17.306452
1738.000000	17.174426
1737.000000	17.063484
1736.000000	16.937419
1735.000000	16.846127
1734.000000	16.754503
1733.000000	16.703724
1732.000000	16.674912
1731.000000	16.658575
1730.000000	16.662549
1729.000000	16.680653
1728.000000	16.710237
1727.000000	16.755938
1726.000000	16.790822
1725.000000	16.851757
1724.000000	16.922296
1723.000000	16.973075
1722.000000	17.030036
1721.000000	17.064919
1720.000000	17.117906
1719.000000	17.187893
1718.000000	17.243309
1717.000000	17.329192
1716.000000	17.418718
1715.000000	17.496543
1714.000000	17.587173
1713.000000	17.673056
1712.000000	17.745582
1711.000000	17.837316
1710.000000	17.902004
1709.000000	17.958855
1708.000000	17.976075
1707.000000	18.001796
1706.000000	17.999368
1705.000000	17.981926
1704.000000	18.001465
1703.000000	17.961283
1702.000000	17.918010
1701.000000	17.845374
1700.000000	17.761257
1699.000000	17.698777
1698.000000	17.584965
1697.000000	17.501069
1696.000000	17.398296
1695.000000	17.352815
1694.000000	17.307004
1693.000000	17.295744
1692.000000	17.290445
1691.000000	17.345530
1690.000000	17.392887
1689.000000	17.485835
1688.000000	17.545666
1687.000000	17.607153
1686.000000	17.688069
1685.000000	17.730017
1684.000000	17.827601
1683.000000	17.935562
1682.000000	18.035686
1681.000000	18.216725
1680.000000	18.436842
1679.000000	18.720654
1678.000000	19.050719
1677.000000	19.363342
1676.000000	19.697823
1675.000000	19.998966
1674.000000	20.305518
1673.000000	20.547493
1672.000000	20.807902
1671.000000	21.003733
1670.000000	21.223740
1669.000000	21.378285
1668.000000	21.530733
1667.000000	21.675675
1666.000000	21.783195
1665.000000	21.903519
1664.000000	22.000441
1663.000000	22.106967
1662.000000	22.185896
1661.000000	22.228948
1660.000000	22.287455
1659.000000	22.362630
1658.000000	22.404688
1657.000000	22.459331
1656.000000	22.468494
1655.000000	22.503377
1654.000000	22.510000
1653.000000	22.515188
1652.000000	22.515520
1651.000000	22.522695
1650.000000	22.487701
1649.000000	22.464299
1648.000000	22.445864
1647.000000	22.421026
1646.000000	22.391331
1645.000000	22.357994
1644.000000	22.309864
1643.000000	22.264273
1642.000000	22.226740
1641.000000	22.196935
1640.000000	22.148143
1639.000000	22.111604
1638.000000	22.051883
1637.000000	22.005519
1636.000000	21.946571
1635.000000	21.917318
1634.000000	21.833201
1633.000000	21.795669
1632.000000	21.743785
1631.000000	21.656798
1630.000000	21.590344
1629.000000	21.529740
1628.000000	21.469688
1627.000000	21.406876
1626.000000	21.339980
1625.000000	21.252110
1624.000000	21.195921
1623.000000	21.126376
1622.000000	21.061688
1621.000000	20.995123
1620.000000	20.938382
1619.000000	20.873252
1618.000000	20.814967
1617.000000	20.737584
1616.000000	20.677421
1615.000000	20.637681
1614.000000	20.570674
1613.000000	20.511616
1612.000000	20.448804
1611.000000	20.385440
1610.000000	20.317661
1609.000000	20.267324
1608.000000	20.197557
1607.000000	20.143908
1606.000000	20.061336
1605.000000	19.988479
1604.000000	19.910986
1603.000000	19.849719
1602.000000	19.785693
1601.000000	19.721557
1600.000000	19.645388
1599.000000	19.564031
1598.000000	19.509057
1597.000000	19.444920
1596.000000	19.387739
1595.000000	19.326031
1594.000000	19.262446
1593.000000	19.207141
1592.000000	19.145764
1591.000000	19.086485
1590.000000	19.026875
1589.000000	18.975102
1588.000000	18.919134
1587.000000	18.867472
1586.000000	18.833141
1585.000000	18.747368
1584.000000	18.721647
1583.000000	18.671199
1582.000000	18.608939
1581.000000	18.561141
1580.000000	18.513121
1579.000000	18.475699
1578.000000	18.463115
1577.000000	18.401959
1576.000000	18.370277
1575.000000	18.339478
1574.000000	18.312764
1573.000000	18.282296
1572.000000	18.250173
1571.000000	18.223569
1570.000000	18.219816
1569.000000	18.198842
1568.000000	18.183387
1567.000000	18.183277
1566.000000	18.166056
1565.000000	18.149277
1564.000000	18.115939
1563.000000	18.097283
1562.000000	18.092426
1561.000000	18.078959
1560.000000	18.060082
1559.000000	18.039329
1558.000000	17.995725
1557.000000	17.973757
1556.000000	17.941744
1555.000000	17.918452
1554.000000	17.893835
1553.000000	17.856303
1552.000000	17.799452
1551.000000	17.771413
1550.000000	17.720303
1549.000000	17.664114
1548.000000	17.618303
1547.000000	17.590264
1546.000000	17.551296
1545.000000	17.491134
1544.000000	17.457244
1543.000000	17.416731
1542.000000	17.381848
1541.000000	17.352484
1540.000000	17.324004
1539.000000	17.293426
1538.000000	17.253906
1537.000000	17.215380
1536.000000	17.180276
1535.000000	17.139653
1534.000000	17.107750
1533.000000	17.071763
1532.000000	17.030257
1531.000000	16.996809
1530.000000	16.956848
1529.000000	16.913023
1528.000000	16.880568
1527.000000	16.819744
1526.000000	16.763997
1525.000000	16.721828
1524.000000	16.667516
1523.000000	16.618834
1522.000000	16.566620
1521.000000	16.506789
1520.000000	16.450159
1519.000000	16.402581
1518.000000	16.359087
1517.000000	16.311620
1516.000000	16.257639
1515.000000	16.199243
1514.000000	16.134445
1513.000000	16.064016
1512.000000	16.006172
1511.000000	15.953074
1510.000000	15.906048
1509.000000	15.853172
1508.000000	15.800737
1507.000000	15.729646
1506.000000	15.661425
1505.000000	15.606782
1504.000000	15.559094
1503.000000	15.497496
1502.000000	15.437996
1501.000000	15.386334
1500.000000	15.332905
1499.000000	15.284444
1498.000000	15.232450
1497.000000	15.180015
1496.000000	15.127911
1495.000000	15.081879
1494.000000	15.052626
1493.000000	15.024918
1492.000000	14.986281
1491.000000	14.957801
1490.000000	14.915080
1489.000000	14.877106
1488.000000	14.858009
1487.000000	14.826989
1486.000000	14.810320
1485.000000	14.789898
1484.000000	14.741327
1483.000000	14.724106
1482.000000	14.707879
1481.000000	14.695184
1480.000000	14.670125
1479.000000	14.639879
1478.000000	14.640541
1477.000000	14.626190
1476.000000	14.616035
1475.000000	14.598041
1474.000000	14.589431
1473.000000	14.598151
1472.000000	14.591086
1471.000000	14.601573
1470.000000	14.603340
1469.000000	14.600138
1468.000000	14.613385
1467.000000	14.612723
1466.000000	14.617028
1465.000000	14.646392
1464.000000	14.661846
1463.000000	14.662288
1462.000000	14.675866
1461.000000	14.700041
1460.000000	14.716379
1459.000000	14.739229
1458.000000	14.779853
1457.000000	14.811976
1456.000000	14.844320
1455.000000	14.876113
1454.000000	14.916294
1453.000000	14.962437
1452.000000	15.029665
1451.000000	15.069846
1450.000000	15.115106
1449.000000	15.166548
1448.000000	15.204632
1447.000000	15.262808
1446.000000	15.333899
1445.000000	15.398918
1444.000000	15.455548
1443.000000	15.508756
1442.000000	15.566490
1441.000000	15.634821
1440.000000	15.701165
1439.000000	15.785944
1438.000000	15.876574
1437.000000	15.940821
1436.000000	16.009815
1435.000000	16.105633
1434.000000	16.188535
1433.000000	16.290646
1432.000000	16.380503
1431.000000	16.482062
1430.000000	16.588698
1429.000000	16.699308
1428.000000	16.813893
1427.000000	16.980802
1426.000000	17.088432
1425.000000	17.212179
1424.000000	17.367166
1423.000000	17.527562
1422.000000	17.693478
1421.000000	17.857848
1420.000000	18.041205
1419.000000	18.240900
1418.000000	18.442582
1417.000000	18.661264
1416.000000	18.839654
1415.000000	19.072135
1414.000000	19.314661
1413.000000	19.593836
1412.000000	19.841551
1411.000000	20.068843
1410.000000	20.362038
1409.000000	20.708110
1408.000000	21.036740
1407.000000	21.381928
1406.000000	21.726785
1405.000000	22.066565
1404.000000	22.475007
1403.000000	22.829689
1402.000000	23.240007
1401.000000	23.615553
1400.000000	24.064287
1399.000000	24.543047
1398.000000	24.906670
1397.000000	25.262456
1396.000000	25.632703
1395.000000	26.133320
1394.000000	26.626762
1393.000000	26.996347
1392.000000	27.408100
1391.000000	27.880016
1390.000000	28.370919
1389.000000	28.791835
1388.000000	29.336608
1387.000000	29.916927
1386.000000	30.542946
1385.000000	31.108804
1384.000000	31.671129
1383.000000	32.309623
1382.000000	32.960701
1381.000000	33.565085
1380.000000	34.099371
1379.000000	34.514767
1378.000000	34.876072
1377.000000	35.165404
1376.000000	35.470742
1375.000000	35.701677
1374.000000	35.982508
1373.000000	36.239274
1372.000000	36.571106
1371.000000	36.910223
1370.000000	37.290736
1369.000000	37.617048
1368.000000	37.924262
1367.000000	38.260399
1366.000000	38.522133
1365.000000	38.781549
1364.000000	39.019659
1363.000000	39.228406
1362.000000	39.411322
1361.000000	39.637289
1360.000000	39.883790
1359.000000	39.964816
1358.000000	40.107329
1357.000000	40.243439
1356.000000	40.372043
1355.000000	40.594037
1354.000000	40.868355
1353.000000	41.200959
1352.000000	41.525394
1351.000000	41.935823
1350.000000	42.375174
1349.000000	42.822694
1348.000000	43.214908
1347.000000	43.645870
1346.000000	44.037532
1345.000000	44.392104
1344.000000	44.782552
1343.000000	45.141208
1342.000000	45.509689
1341.000000	45.870663
1340.000000	46.226560
1339.000000	46.603430
1338.000000	46.935703
1337.000000	47.282437
1336.000000	47.636015
1335.000000	47.972814
1334.000000	48.299457
1333.000000	48.658665
1332.000000	48.974048
1331.000000	49.309854
1330.000000	49.639919
1329.000000	49.933776
1328.000000	50.229951
1327.000000	50.529218
1326.000000	50.808835
1325.000000	51.086796
1324.000000	51.359127
1323.000000	51.623400
1322.000000	51.877959
1321.000000	52.117173
1320.000000	52.352193
1319.000000	52.596485
1318.000000	52.813953
1317.000000	53.025239
1316.000000	53.242927
1315.000000	53.467791
1314.000000	53.651700
1313.000000	53.850954
1312.000000	54.032434
1311.000000	54.186759
1310.000000	54.368240
1309.000000	54.516934
1308.000000	54.672253
1307.000000	54.818298
1306.000000	54.958052
1305.000000	55.085000
1304.000000	55.192630
1303.000000	55.299266
1302.000000	55.404136
1301.000000	55.505364
1300.000000	55.571156
1299.000000	55.653727
1298.000000	55.726253
1297.000000	55.781338
1296.000000	55.841390
1295.000000	55.902877
1294.000000	55.951448
1293.000000	55.990305
1292.000000	56.016799
1291.000000	56.057974
1290.000000	56.080935
1289.000000	56.080604
1288.000000	56.081046
1287.000000	56.079832
1286.000000	56.066474
1285.000000	56.046273
1284.000000	56.025078
1283.000000	55.983351
1282.000000	55.949351
1281.000000	55.926500
1280.000000	55.890955
1279.000000	55.843708
1278.000000	55.793039
1277.000000	55.746124
1276.000000	55.710578
1275.000000	55.683533
1274.000000	55.649643
1273.000000	55.618182
1272.000000	55.588818
1271.000000	55.580981
1270.000000	55.563649
1269.000000	55.530312
1268.000000	55.501942
1267.000000	55.487260
1266.000000	55.464740
1265.000000	55.416390
1264.000000	55.374441
1263.000000	55.337571
1262.000000	55.286792
1261.000000	55.243630
1260.000000	55.215701
1259.000000	55.175740
1258.000000	55.121208
1257.000000	55.066123
1256.000000	55.024617
1255.000000	54.973396
1254.000000	54.912461
1253.000000	54.854617
1252.000000	54.772597
1251.000000	54.690136
1250.000000	54.623019
1249.000000	54.533493
1248.000000	54.437233
1247.000000	54.345168
1246.000000	54.243389
1245.000000	54.142382
1244.000000	54.014441
1243.000000	53.899194
1242.000000	53.771363
1241.000000	53.655453
1240.000000	53.543187
1239.000000	53.396479
1238.000000	53.263239
1237.000000	53.144239
1236.000000	53.010447
1235.000000	52.877648
1234.000000	52.747609
1233.000000	52.606420
1232.000000	52.459050
1231.000000	52.319297
1230.000000	52.166849
1229.000000	52.001816
1228.000000	51.851576
1227.000000	51.704758
1226.000000	51.536303
1225.000000	51.359459
1224.000000	51.198952
1223.000000	51.032484
1222.000000	50.843387
1221.000000	50.659478
1220.000000	50.482192
1219.000000	50.321354
1218.000000	50.151575
1217.000000	49.980471
1216.000000	49.822172
1215.000000	49.665087
1214.000000	49.508776
1213.000000	49.362399
1212.000000	49.208737
1211.000000	49.061035
1210.000000	48.924704
1209.000000	48.772918
1208.000000	48.634931
1207.000000	48.520015
1206.000000	48.388100
1205.000000	48.252872
1204.000000	48.148223
1203.000000	48.058697
1202.000000	47.986612
1201.000000	47.907684
1200.000000	47.836924
1199.000000	47.764729
1198.000000	47.689002
1197.000000	47.596054
1196.000000	47.452989
1195.000000	47.309372
1194.000000	47.139593
1193.000000	46.911527
1192.000000	46.647034
1191.000000	46.351741
1190.000000	46.027306
1189.000000	45.695033
1188.000000	45.377884
1187.000000	45.088773
1186.000000	44.904864
1185.000000	44.794585
1184.000000	44.779903
1183.000000	44.886539
1182.000000	45.088442
1181.000000	45.383403
1180.000000	45.744267
1179.000000	46.162754
1178.000000	46.583449
1177.000000	46.983391
1176.000000	47.366885
1175.000000	47.712184
1174.000000	48.018736
1173.000000	48.311158
1172.000000	48.600931
1171.000000	48.895671
1170.000000	49.212159
1169.000000	49.521029
1168.000000	49.829899
1167.000000	50.157867
1166.000000	50.503718
1165.000000	50.842835
1164.000000	51.190783
1163.000000	51.552530
1162.000000	51.943530
1161.000000	52.332764
1160.000000	52.703563
1159.000000	53.094564
1158.000000	53.466798
1157.000000	53.838480
1156.000000	54.237428
1155.000000	54.569922
1154.000000	54.881110
1153.000000	55.183799
1152.000000	55.438026
1151.000000	55.669734
1150.000000	55.888637
1149.000000	56.075857
1148.000000	56.258884
1147.000000	56.437604
1146.000000	56.651760
1145.000000	56.909741
1144.000000	57.201832
1143.000000	57.545586
1142.000000	57.898722
1141.000000	58.322287
1140.000000	58.739340
1139.000000	59.192489
1138.000000	59.658886
1137.000000	60.144600
1136.000000	60.685620
1135.000000	61.229179
1134.000000	61.803536
1133.000000	62.327335
1132.000000	62.797926
1131.000000	63.235953
1130.000000	63.664816
1129.000000	64.045330
1128.000000	64.378375
1127.000000	64.642648
1126.000000	64.873473
1125.000000	65.065441
1124.000000	65.247252
1123.000000	65.390869
1122.000000	65.497064
1121.000000	65.594538
1120.000000	65.693337
1119.000000	65.772707
1118.000000	65.790038
1117.000000	65.864331
1116.000000	65.880889
1115.000000	65.907272
1114.000000	65.916324
1113.000000	65.942487
1112.000000	65.923941
1111.000000	65.951980
1110.000000	65.941493
1109.000000	65.948889
1108.000000	65.922175
1107.000000	65.938623
1106.000000	65.950324
1105.000000	65.956727
1104.000000	65.955181
1103.000000	65.936857
1102.000000	65.944915
1101.000000	65.949552
1100.000000	65.933987
1099.000000	65.931116
1098.000000	65.933655
1097.000000	65.918091
1096.000000	65.881552
1095.000000	65.875480
1094.000000	65.857818
1093.000000	65.832980
1092.000000	65.798538
1091.000000	65.756259
1090.000000	65.732084
1089.000000	65.721045
1088.000000	65.670707
1087.000000	65.628207
1086.000000	65.544532
1085.000000	65.537467
1084.000000	65.482493
1083.000000	65.397603
1082.000000	65.355545
1081.000000	65.270103
1080.000000	65.235662
1079.000000	65.179252
1078.000000	65.132116
1077.000000	65.042480
1076.000000	65.008700
1075.000000	64.946551
1074.000000	64.869057
1073.000000	64.800837
1072.000000	64.739570
1071.000000	64.684376
1070.000000	64.619577
1069.000000	64.537999
1068.000000	64.480044
1067.000000	64.421096
1066.000000	64.334551
1065.000000	64.266219
1064.000000	64.171615
1063.000000	64.088823
1062.000000	64.020602
1061.000000	63.951167
1060.000000	63.860206
1059.000000	63.778739
1058.000000	63.696940
1057.000000	63.612161
1056.000000	63.516122
1055.000000	63.436310
1054.000000	63.350758
1053.000000	63.264323
1052.000000	63.169277
1051.000000	63.082621
1050.000000	62.997400
1049.000000	62.924874
1048.000000	62.841861
1047.000000	62.766796
1046.000000	62.690959
1045.000000	62.600991
1044.000000	62.524933
1043.000000	62.462894
1042.000000	62.378777
1041.000000	62.282296
1040.000000	62.206569
1039.000000	62.138017
1038.000000	62.057984
1037.000000	61.968238
1036.000000	61.878932
1035.000000	61.793380
1034.000000	61.711030
1033.000000	61.611127
1032.000000	61.521601
1031.000000	61.419490
1030.000000	61.315393
1029.000000	61.229399
1028.000000	61.109295
1027.000000	61.029263
1026.000000	60.915562
1025.000000	60.803958
1024.000000	60.706263
1023.000000	60.601503
1022.000000	60.485263
1021.000000	60.385802
1020.000000	60.284905
1019.000000	60.192620
1018.000000	60.094042
1017.000000	59.986964
1016.000000	59.885736
1015.000000	59.808243
1014.000000	59.721587
1013.000000	59.654801
1012.000000	59.579847
1011.000000	59.504340
1010.000000	59.442191
1009.000000	59.392626
1008.000000	59.328931
1007.000000	59.287093
1006.000000	59.250554
1005.000000	59.204301
1004.000000	59.147781
1003.000000	59.093911
1002.000000	59.074814
1001.000000	59.052515
1000.000000	59.009684
999.000000	58.968288
998.000000	58.913534
997.000000	58.884281
996.000000	58.856463
995.000000	58.814736
994.000000	58.774112
993.000000	58.730508
992.000000	58.701807
991.000000	58.685911
990.000000	58.650255
989.000000	58.626852
988.000000	58.596054
987.000000	58.561943
986.000000	58.550132
985.000000	58.547813
984.000000	58.537547
983.000000	58.517125
982.000000	58.512599
981.000000	58.491294
980.000000	58.491404
979.000000	58.482573
978.000000	58.488865
977.000000	58.497476
976.000000	58.481248
975.000000	58.463145
974.000000	58.475619
973.000000	58.490190
972.000000	58.479041
971.000000	58.479593
970.000000	58.472086
969.000000	58.452326
968.000000	58.464800
967.000000	58.478599
966.000000	58.484560
965.000000	58.489086
964.000000	58.496924
963.000000	58.520547
962.000000	58.541521
961.000000	58.562054
960.000000	58.562275
959.000000	58.575411
958.000000	58.596385
957.000000	58.627956
956.000000	58.671671
955.000000	58.689885
954.000000	58.705340
953.000000	58.728301
952.000000	58.744307
951.000000	58.780515
950.000000	58.830742
949.000000	58.845866
948.000000	58.846969
947.000000	58.866619
946.000000	58.875450
945.000000	58.891898
944.000000	58.885054
943.000000	58.876664
942.000000	58.873463
941.000000	58.858671
940.000000	58.836482
939.000000	58.800716
938.000000	58.769476
937.000000	58.763956
936.000000	58.751262
935.000000	58.714943
934.000000	58.682820
933.000000	58.649482
932.000000	58.646281
931.000000	58.623210
930.000000	58.567132
929.000000	58.526619
928.000000	58.505093
927.000000	58.451885
926.000000	58.387307
925.000000	58.329352
924.000000	58.263560
923.000000	58.223489
922.000000	58.178008
921.000000	58.104047
920.000000	58.034722
919.000000	57.971469
918.000000	57.918592
917.000000	57.851365
916.000000	57.765151
915.000000	57.693618
914.000000	57.624625
913.000000	57.546469
912.000000	57.478138
911.000000	57.395345
910.000000	57.313767
909.000000	57.237930
908.000000	57.160767
907.000000	57.093650
906.000000	57.021235
905.000000	56.957540
904.000000	56.916033
903.000000	56.857748
902.000000	56.795046
901.000000	56.757735
900.000000	56.711702
899.000000	56.672514
898.000000	56.636747
897.000000	56.593695
896.000000	56.526579
895.000000	56.481871
894.000000	56.453942
893.000000	56.400072
892.000000	56.322578
891.000000	56.261533
890.000000	56.212520
889.000000	56.114273
888.000000	56.058637
887.000000	55.996598
886.000000	55.916124
885.000000	55.842714
884.000000	55.766104
883.000000	55.672383
882.000000	55.571156
881.000000	55.488474
880.000000	55.381727
879.000000	55.276967
878.000000	55.146708
877.000000	54.993045
876.000000	54.848214
875.000000	54.736500
874.000000	54.571467
873.000000	54.401467
872.000000	54.208395
871.000000	54.130902
870.000000	54.106837
869.000000	54.105954
868.000000	54.121850
867.000000	54.106285
866.000000	54.099993
865.000000	54.068973
864.000000	54.056941
863.000000	54.061577
862.000000	54.053850
861.000000	54.044577
860.000000	54.024155
859.000000	54.026694
858.000000	54.018967
857.000000	53.968100
856.000000	53.962900
855.000000	54.125900
854.000000	54.470200
853.000000	54.366800
852.000000	54.734100
851.000000	54.118800
850.000000	54.002300
849.000000	54.148500
848.000000	53.935100
847.000000	54.244800
846.000000	54.068200
845.000000	54.171700
844.000000	53.977500
843.000000	53.981800
842.000000	53.940700
841.000000	54.066300
840.000000	54.100900
839.000000	54.163800
838.000000	53.954200
837.000000	53.726200
836.000000	53.810300
835.000000	53.593900
834.000000	53.566100
833.000000	53.597400
832.000000	53.510900
831.000000	53.534700
830.000000	53.502000
829.000000	53.450700
828.000000	53.437200
827.000000	53.316000
826.000000	53.281600
825.000000	53.154000
824.000000	53.095400
823.000000	52.966000
822.000000	52.991400
821.000000	53.032100
820.000000	52.818800
819.000000	52.629400
818.000000	52.681400
817.000000	52.481300
816.000000	52.586200
815.000000	52.391800
814.000000	52.253500
813.000000	52.302200
812.000000	52.168200
811.000000	52.248100
810.000000	52.103500
809.000000	51.756200
808.000000	51.864300
807.000000	51.690800
806.000000	51.746600
805.000000	51.452600
804.000000	51.474700
803.000000	51.366600
802.000000	51.250200
801.000000	51.116000
800.000000	51.212100
799.000000	50.896500
798.000000	50.806800
797.000000	50.589300
796.000000	50.568500
795.000000	50.353600
794.000000	50.306300
793.000000	50.344700
792.000000	50.017300
791.000000	50.186200
790.000000	49.957100
789.000000	49.770300
788.000000	49.808500
787.000000	49.648000
786.000000	49.490200
785.000000	49.422600
784.000000	49.312700
783.000000	49.257700
782.000000	49.076600
781.000000	49.033200
780.000000	48.882200
779.000000	48.699200
778.000000	48.528500
777.000000	48.404600
776.000000	48.349500
775.000000	48.260200
774.000000	48.031500
773.000000	48.035600
772.000000	47.910800
771.000000	47.742800
770.000000	47.626200
769.000000	47.526700
768.000000	47.300200
767.000000	47.330000
766.000000	47.031300
765.000000	46.898600
764.000000	46.844200
763.000000	46.706300
762.000000	46.509600
761.000000	46.373600
760.000000	46.237400
759.000000	45.991100
758.000000	45.836200
757.000000	45.794200
756.000000	45.544200
755.000000	45.409900
754.000000	45.221900
753.000000	45.058300
752.000000	44.952800
751.000000	44.807800
750.000000	44.696500
749.000000	44.534300
748.000000	44.265400
747.000000	44.127600
746.000000	43.984400
745.000000	43.808400
744.000000	43.600200
743.000000	43.443700
742.000000	43.255500
741.000000	42.992400
740.000000	42.807600
739.000000	42.639900
738.000000	42.408300
737.000000	42.273900
736.000000	42.164300
735.000000	41.982400
734.000000	41.791300
733.000000	41.627000
732.000000	41.421700
731.000000	41.171700
730.000000	41.006700
729.000000	40.815900
728.000000	40.627500
727.000000	40.337100
726.000000	40.180800
725.000000	39.989300
724.000000	39.779500
723.000000	39.537700
722.000000	39.356700
721.000000	39.137100
720.000000	38.903000
719.000000	38.756100
718.000000	38.542900
717.000000	38.301100
716.000000	38.083600
715.000000	37.877300
714.000000	37.632600
713.000000	37.394300
712.000000	37.160400
711.000000	36.927300
710.000000	36.667800
709.000000	36.460100
708.000000	36.217700
707.000000	35.985200
706.000000	35.787500
705.000000	35.540700
704.000000	35.303300
703.000000	35.058300
702.000000	34.824100
701.000000	34.530600
700.000000	34.271700
699.000000	34.006500
698.000000	33.762900
697.000000	33.565900
696.000000	33.299700
695.000000	33.043000
694.000000	32.851900
693.000000	32.554800
692.000000	32.329400
691.000000	32.132300
690.000000	31.857000
689.000000	31.635400
688.000000	31.397200
687.000000	31.174000
686.000000	30.938500
685.000000	30.687300
684.000000	30.483600
683.000000	30.296000
682.000000	30.064200
681.000000	29.868700
680.000000	29.653300
679.000000	29.445300
678.000000	29.273700
677.000000	29.091800
676.000000	28.907400
675.000000	28.743200
674.000000	28.598800
673.000000	28.421800
672.000000	28.231200
671.000000	28.055900
670.000000	27.887600
669.000000	27.749800
668.000000	27.615800
667.000000	27.493900
666.000000	27.347400
665.000000	27.211000
664.000000	27.092900
663.000000	26.953700
662.000000	26.817500
661.000000	26.685700
660.000000	26.589600
659.000000	26.480400
658.000000	26.345400
657.000000	26.246400
656.000000	26.177300
655.000000	26.078700
654.000000	25.984600
653.000000	25.903400
652.000000	25.838500
651.000000	25.791200
650.000000	25.734800
649.000000	25.674700
648.000000	25.632200
647.000000	25.566500
646.000000	25.512700
645.000000	25.489500
644.000000	25.444500
643.000000	25.409400
642.000000	25.392100
641.000000	25.369000
640.000000	25.345500
639.000000	25.333100
638.000000	25.341400
637.000000	25.332100
636.000000	25.325600
635.000000	25.350200
634.000000	25.339900
633.000000	25.331500
632.000000	25.359000
631.000000	25.377400
630.000000	25.385300
629.000000	25.397000
628.000000	25.423300
627.000000	25.449400
626.000000	25.456300
625.000000	25.488900
624.000000	25.546500
623.000000	25.573800
622.000000	25.583900
621.000000	25.620300
620.000000	25.654200
619.000000	25.691900
618.000000	25.738800
617.000000	25.789400
616.000000	25.824200
615.000000	25.865200
614.000000	25.914500
613.000000	25.947900
612.000000	25.966400
611.000000	26.041000
610.000000	26.083700
609.000000	26.110500
608.000000	26.149700
607.000000	26.187500
606.000000	26.212200
605.000000	26.269400
604.000000	26.319400
603.000000	26.352100
602.000000	26.380200
601.000000	26.434600
600.000000	26.453000
599.000000	26.482900
598.000000	26.529000
597.000000	26.525100
596.000000	26.549100
595.000000	26.550900
594.000000	26.551600
593.000000	26.544600
592.000000	26.534100
591.000000	26.528600
590.000000	26.500300
589.000000	26.465400
588.000000	26.446800
587.000000	26.427200
586.000000	26.404800
585.000000	26.338800
584.000000	26.295200
583.000000	26.237000
582.000000	26.182700
581.000000	26.123300
580.000000	26.046900
579.000000	25.948700
578.000000	25.861000
577.000000	25.767900
576.000000	25.676600
575.000000	25.574800
574.000000	25.475300
573.000000	25.344400
572.000000	25.214400
571.000000	25.075000
570.000000	24.937300
569.000000	24.800500
568.000000	24.669100
567.000000	24.519300
566.000000	24.363400
565.000000	24.191900
564.000000	24.022300
563.000000	23.853900
562.000000	23.650600
561.000000	23.448600
560.000000	23.268900
559.000000	23.113100
558.000000	22.905300
557.000000	22.712000
556.000000	22.522500
555.000000	22.308400
554.000000	22.112500
553.000000	21.910100
552.000000	21.671700
551.000000	21.438700
550.000000	21.230000
549.000000	20.980100
548.000000	20.753400
547.000000	20.548800
546.000000	20.336200
545.000000	20.103300
544.000000	19.868400
543.000000	19.636800
542.000000	19.413800
541.000000	19.189200
540.000000	18.962800
539.000000	18.757300
538.000000	18.532100
537.000000	18.325300
536.000000	18.119500
535.000000	17.915200
534.000000	17.697800
533.000000	17.481600
532.000000	17.277200
531.000000	17.068200
530.000000	16.864600
529.000000	16.687700
528.000000	16.486200
527.000000	16.294900
526.000000	16.115800
525.000000	15.925300
524.000000	15.745800
523.000000	15.558600
522.000000	15.379700
521.000000	15.206800
520.000000	15.027400
519.000000	14.862400
518.000000	14.693500
517.000000	14.529700
516.000000	14.356700
515.000000	14.200000
514.000000	14.056600
513.000000	13.908300
512.000000	13.736800
511.000000	13.618500
510.000000	13.470200
509.000000	13.329400
508.000000	13.220600
507.000000	13.103700
506.000000	12.970300
505.000000	12.882000
504.000000	12.773600
503.000000	12.670200
502.000000	12.574800
501.000000	12.492400
500.000000	12.381700
499.000000	12.320600
498.000000	12.236200
497.000000	12.161100
496.000000	12.102900
495.000000	12.062900
494.000000	11.986800
493.000000	11.941200
492.000000	11.896900
491.000000	11.858700
490.000000	11.833500
489.000000	11.813300
488.000000	11.771000
487.000000	11.726000
486.000000	11.689000
485.000000	11.677600
484.000000	11.630600
483.000000	11.602800
482.000000	11.564800
481.000000	11.515300
480.000000	11.454000
479.000000	11.401500
478.000000	11.380500
477.000000	11.342600
476.000000	11.295100
475.000000	11.249500
474.000000	11.198500
473.000000	11.150000
472.000000	11.102100
471.000000	11.060500
470.000000	11.028600
469.000000	10.969500
468.000000	10.935400
467.000000	10.885800
466.000000	10.821400
465.000000	10.773800
464.000000	10.713300
463.000000	10.691600
462.000000	10.632400
461.000000	10.536400
460.000000	10.523300
459.000000	10.449600
458.000000	10.397500
457.000000	10.338400
456.000000	10.261700
455.000000	10.238800
454.000000	10.164600
453.000000	10.090200
452.000000	10.030400
451.000000	9.979100
450.000000	9.881200
449.000000	9.821200
448.000000	9.754900
447.000000	9.685500
446.000000	9.607100
445.000000	9.543000
444.000000	9.466900
443.000000	9.369900
442.000000	9.295700
441.000000	9.220500
440.000000	9.124100
439.000000	9.049900
438.000000	8.959400
437.000000	8.886100
436.000000	8.778300
435.000000	8.715000
434.000000	8.651900
433.000000	8.553800
432.000000	8.471700
431.000000	8.373200
430.000000	8.308900
429.000000	8.250900
428.000000	8.158000
427.000000	8.068300
426.000000	8.018200
425.000000	7.960500
424.000000	7.879200
423.000000	7.791300
422.000000	7.701600
421.000000	7.651800
420.000000	7.582400
419.000000	7.500900
418.000000	7.434900
417.000000	7.362200
416.000000	7.302700
415.000000	7.242600
414.000000	7.158200
413.000000	7.110700
412.000000	7.059900
411.000000	6.980500
410.000000	6.910000
409.000000	6.850800
408.000000	6.795100
407.000000	6.725300
406.000000	6.651300
405.000000	6.597400
404.000000	6.535700
403.000000	6.486300
402.000000	6.422600
401.000000	6.362600
400.000000	6.293900
399.000000	6.223700
398.000000	6.184100
397.000000	6.121400
396.000000	6.046600
395.000000	5.977700
394.000000	5.933900
393.000000	5.899800
392.000000	5.854300
391.000000	5.774600
390.000000	5.728800
389.000000	5.654600
388.000000	5.569500
387.000000	5.535100
386.000000	5.495100
385.000000	5.416000
384.000000	5.389800
383.000000	5.343300
382.000000	5.311700
381.000000	5.248900
380.000000	5.179300
379.000000	5.182600
378.000000	5.124700
377.000000	5.075500
376.000000	4.911100
375.000000	4.553400
374.000000	4.446600
373.000000	4.570000
372.000000	4.691100
371.000000	4.729100
370.000000	4.546400
369.000000	4.612400
368.000000	4.610100
367.000000	4.665800
366.000000	4.623500
365.000000	4.627100
364.000000	4.528100
363.000000	4.650600
362.000000	4.704700
361.000000	4.608700
360.000000	4.562800
359.000000	4.658200
358.000000	4.683700
357.000000	4.642800
356.000000	4.598800
355.000000	4.566900
354.000000	4.677200
353.000000	4.737300
352.000000	4.759300
351.000000	4.825400
350.000000	4.652700
349.000000	4.615700
348.000000	4.642200
347.000000	4.764800
346.000000	4.933700
345.000000	4.841200
344.000000	4.913300
343.000000	5.019200
342.000000	4.822800
341.000000	4.591900
340.000000	4.548000
339.000000	4.950200
338.000000	5.041500
337.000000	4.943600
336.000000	4.789900
335.000000	4.738700
334.000000	4.986500
333.000000	4.975900
332.000000	4.784900
331.000000	4.931300
330.000000	5.055200
329.000000	4.580500
328.000000	4.287000
327.000000	4.754600
326.000000	4.856300
325.000000	4.930400
324.000000	5.281300
323.000000	5.129000
322.000000	5.377500
321.000000	5.178000
320.000000	5.060000
319.000000	5.215200
318.000000	5.495400
317.000000	5.887600
316.000000	5.188000
315.000000	4.611500
314.000000	4.632000
313.000000	4.610500
312.000000	4.610500
311.000000	4.574000
310.000000	4.573800
309.000000	4.618300
308.000000	4.631900
307.000000	4.611300
306.000000	4.635600
305.000000	4.654200
304.000000	4.635600
303.000000	4.642500
302.000000	4.655200
301.000000	4.640500
300.000000	4.643600
299.000000	4.685700
298.000000	4.696800
297.000000	4.661500
296.000000	4.641700
295.000000	4.640300
294.000000	4.614100
293.000000	4.659400
292.000000	4.691200
291.000000	4.672300
290.000000	4.671900
289.000000	4.711500
288.000000	4.735900
287.000000	4.717700
286.000000	4.654600
285.000000	4.650600
284.000000	4.695900
283.000000	4.729800
282.000000	4.764100
281.000000	4.748200
280.000000	4.733400
279.000000	4.741500
278.000000	4.726700
277.000000	4.764400
276.000000	4.784200
275.000000	4.780200
274.000000	4.756200
273.000000	4.746400
272.000000	4.798800
271.000000	4.843800
270.000000	4.872400
269.000000	4.833600
268.000000	4.875200
267.000000	4.889500
266.000000	4.931100
265.000000	4.993900
264.000000	4.976700
263.000000	4.946800
262.000000	5.011000
261.000000	5.067100
260.000000	5.076100
259.000000	5.054500
258.000000	5.139200
257.000000	5.092800
256.000000	5.073900
255.000000	5.111100
254.000000	5.139800
253.000000	5.148900
252.000000	5.145400
251.000000	5.124300
250.000000	5.150000
